Time (s),Acceleration x (m/s^2),Acceleration y (m/s^2),Acceleration z (m/s^2),Absolute acceleration (m/s^2)
0.002571916673332,0.008382568359375,0.123193817138672,9.78066101074219,9.78144042516673
0.012608916673344,0.013921051025391,0.101788330078125,9.79054046630859,9.7910794748193
0.022645916673355,0.003891906738281,0.082927551269531,9.78425354003906,9.78460573868281
0.032681916665752,0.001347198486328,0.065713348388672,9.78649887084961,9.7867195836113
0.042718916665763,0.006586303710938,0.058378601074219,9.78739700317383,9.78757332223856
0.052755916665774,-0.003442840576172,0.058079223632813,9.77781692504883,9.77799002193909
0.062792916665785,-0.005688171386719,0.065114593505859,9.78904357910156,9.78926179336985
0.072829916665796,-0.009879455566406,0.07903564453125,9.78380447387695,9.78412868986316
0.082866916665807,-0.000149688720703,0.088316345214844,9.79817459106445,9.79857260605951
0.092903916665819,-0.002993774414063,0.103584594726563,9.79428268432617,9.79483088324864
0.10294091666583,-0.002095642089844,0.115859069824219,9.78649887084961,9.78718487946953
0.112977916665841,0.000748443603516,0.116757202148438,9.79308517456055,9.79378119219635
0.123014916665852,0.008981323242188,0.119301910400391,9.78500198364258,9.78573336188359
0.133051916665863,0.019309844970703,0.105081481933594,9.78904357910156,9.78962661093403
0.143088916665874,0.017214202880859,0.104632415771484,9.77961318969727,9.78018805602999
0.153125916665886,0.024698638916016,0.094004516601563,9.78694793701172,9.78743055115508
0.163161916672834,0.018411712646484,0.086520080566406,9.78934295654297,9.78974260316997
0.173198916672845,0.004640350341797,0.083975372314453,9.78754669189453,9.78790803195567
0.183235916672857,-0.012873229980469,0.076341247558594,9.78904357910156,9.78934971791684
0.193272916672868,-0.012573852539063,0.078436889648438,9.78335540771484,9.78367791176144
0.203309916672879,-0.012573852539063,0.07903564453125,9.79622863769531,9.79655553022979
0.21334691667289,-0.015268249511719,0.087567901611328,9.78664855957031,9.78705222655808
0.223383916672901,-0.013471984863281,0.098046112060547,9.78096038818359,9.78146106927196
0.233420916672912,0.005089416503906,0.098644866943359,9.79248641967773,9.7929845803773
0.243457916672924,0.00239501953125,0.098046112060547,9.79009140014649,9.79058263840467
0.253494666671031,0.008083190917969,0.10777587890625,9.78979202270508,9.79038859422186
0.263531666671042,0.023800506591797,0.102836151123047,9.77587097167969,9.77644081417268
0.273568666671053,0.0143701171875,0.106877746582031,9.78096038818359,9.7815548594382
0.283605666671065,0.01916015625,0.097297668457031,9.78560073852539,9.78610319594594
0.293642666671076,0.016316070556641,0.101339263916016,9.77602066040039,9.77655950798361
0.303679666671087,0.000299377441406,0.097447357177734,9.79039077758789,9.79087573483219
0.313715666663484,-0.011825408935547,0.083526306152344,9.78709762573242,9.78746118356202
0.323752666663495,-0.011376342773438,0.085322570800781,9.78799575805664,9.78837424304965
0.333789666663506,-0.01197509765625,0.082478485107422,9.78754669189453,9.78790152941299
0.343826666663517,-0.014968872070313,0.077688446044922,9.78784606933594,9.78816582607768
0.353863666663528,-0.010927276611328,0.088016967773438,9.78410385131836,9.7845058416546
0.36390066666354,0.003592529296875,0.092956695556641,9.78275665283203,9.78319894421272
0.373937666663551,0.006885681152344,0.095351715087891,9.78754669189453,9.78801356804284
0.383974666663562,0.017214202880859,0.099243621826172,9.79308517456055,9.79360316030069
0.394011666663573,0.024548950195313,0.107326812744141,9.78829513549805,9.78891430932482
0.404048666663584,0.020207977294922,0.101488952636719,9.7906901550293,9.79123700467113
0.414085666663596,0.015417938232422,0.099992065429688,9.78515167236328,9.78567470219209
0.424122666663607,0.0047900390625,0.099692687988281,9.79248641967773,9.79299504013381
0.434159666663618,0.004340972900391,0.100890197753906,9.78425354003906,9.78477465309322
0.444195666670566,0.002844085693359,0.100740509033203,9.79338455200195,9.79390308928847
0.454232666670578,-0.010029144287109,0.091609497070313,9.7857504272461,9.78618435898465
0.464269666670589,-0.006885681152344,0.083975372314453,9.78365478515625,9.78401759150458
0.4743066666706,-0.010927276611328,0.082328796386719,9.78275665283203,9.78310917677085
0.484343666670611,-0.005239105224609,0.082478485107422,9.77212875366211,9.77247821828624
0.494380666670622,0.002694396972656,0.085023193359375,9.79143859863281,9.79180810851503
0.504417666670634,0.000299377441406,0.093256072998047,9.78515167236328,9.78559604908826
0.514454666670645,0.017962646484375,0.095351715087891,9.78979202270508,9.79027284880554
0.524491666670656,0.014819183349609,0.094453582763672,9.77826599121094,9.77873339867513
0.534528666670667,0.004939727783203,0.110320587158203,9.78934295654297,9.78996580962768
0.544565666670678,0.012124786376953,0.114661560058594,9.78784606933594,9.78852516780821
0.554602666670689,0.004340972900391,0.105680236816406,9.79009140014649,9.79066273444865
0.564639666670701,-0.005837860107422,0.105979614257813,9.79473175048828,9.79530682639764
0.574676666670712,-0.007634124755859,0.100890197753906,9.78799575805664,9.78851868627723
0.584712666663108,-0.004041595458984,0.096698913574219,9.78530136108398,9.7857799761497
0.59474966666312,0.0047900390625,0.090262298583984,9.79398330688477,9.79440040240123
0.604786666663131,-0.010328521728516,0.080831909179688,9.78066101074219,9.78100047454018
0.614823666663142,-0.006885681152344,0.078885955810547,9.77841567993164,9.77873629955129
0.624860666663153,0,0.078436889648438,9.78455291748047,9.78486730316939
0.634897666663164,0.011376342773438,0.087567901611328,9.79188766479492,9.79228582091691
0.644934666663175,0.014968872070313,0.09340576171875,9.78679824829102,9.78725541999418
0.654971666663187,0.011526031494141,0.098644866943359,9.79024108886719,9.79074482546245
0.665008666663198,0.010627899169922,0.102536773681641,9.78814544677734,9.78868826909233
0.675045666663209,0.000149688720703,0.113164672851563,9.77452377319336,9.77517883510632
0.68508266666322,-0.001197509765625,0.113014984130859,9.79712677001953,9.79777866500877
0.695119666663231,0.006137237548828,0.110470275878906,9.77676910400391,9.7773951265428
0.705156666663243,0.003293151855469,0.099243621826172,9.78709762573242,9.78760134440199
0.715193666663254,0.006885681152344,0.093705139160156,9.78814544677734,9.78859639340483
0.725229666670202,-0.001945953369141,0.087567901611328,9.78664855957031,9.7870405104233
0.735266666670213,0.002694396972656,0.081730041503906,9.78634918212891,9.78669082856991
0.745303666670225,0.009131011962891,0.079484710693359,9.77691879272461,9.77724614981873
0.755340666670236,0.000299377441406,0.082628173828125,9.79383361816406,9.7941821733628
0.765377666670247,0.004490661621094,0.086071014404297,9.78380447387695,9.78418409314834
0.775414666670258,-0.000748443603516,0.089813232421875,9.79054046630859,9.79095243575986
0.785451666670269,-0.000149688720703,0.098644866943359,9.78290634155274,9.78340366742443
0.795488666670281,0.005388793945313,0.103883972167969,9.7857504272461,9.78630330324585
0.805525666670292,0.004939727783203,0.107027435302734,9.79757583618164,9.79816164076448
0.815562666670303,0.00239501953125,0.109871520996094,9.77901443481445,9.77963193599606
0.825599666670314,0.003143463134766,0.106129302978516,9.78889389038086,9.78946969490416
0.835636666670325,0.009430389404297,0.101788330078125,9.78335540771484,9.78388945307783
0.845673666670336,0.008981323242188,0.089064788818359,9.79338455200195,9.79379365640123
0.855710666670348,-0.001646575927734,0.086370391845703,9.79158828735352,9.79196934966804
0.865746666662744,-0.00239501953125,0.086071014404297,9.7811100769043,9.78148906313134
0.875783666662755,0.00239501953125,0.07903564453125,9.77931381225586,9.77963348023858
0.885820666662767,-0.002993774414063,0.084274749755859,9.79143859863281,9.79180172526631
0.895857666662778,0.001796264648438,0.089962921142578,9.78979202270508,9.79020553418401
0.905894666662789,0.000898132324219,0.0910107421875,9.78889389038086,9.78931700165905
0.9159316666628,-0.005688171386719,0.090711364746094,9.79308517456055,9.79350693792502
0.925968666662811,-0.005987548828125,0.101788330078125,9.7861994934082,9.78673067166273
0.936005666662823,0.006436614990234,0.109422454833984,9.77437408447266,9.77498866735124
0.946042666662834,0.009280700683594,0.107476501464844,9.79128890991211,9.79188316143224
0.956079666662845,0.002095642089844,0.101938018798828,9.78545104980469,9.78598221945636
0.966116666662856,0.008681945800781,0.092807006835938,9.7814094543457,9.78185357845149
0.976153666662867,0.011076965332031,0.098644866943359,9.79039077758789,9.79089398813067
0.986190666662878,0.009729766845703,0.0910107421875,9.79113922119141,9.79156702843365
0.99622766666289,0.005688171386719,0.089364166259766,9.79113922119141,9.7915486802782
1.00626366666984,0.004191284179688,0.0910107421875,9.78485229492188,9.78527643735702
1.01630066666985,-0.006885681152344,0.092956695556641,9.79383361816406,9.79427717088578
1.02633766666986,-0.006735992431641,0.088466033935547,9.79158828735352,9.79199023701479
1.03637466666987,-0.004939727783203,0.080831909179688,9.78485229492188,9.78518740913479
1.04641166666988,-0.003592529296875,0.092208251953125,9.78380447387695,9.78423963581482
1.05644866666989,-0.001197509765625,0.10298583984375,9.77587097167969,9.77641349228681
1.06648566666991,0.007035369873047,0.106578369140625,9.78844482421875,9.78902755752443
1.07652266666992,0.002993774414063,0.104033660888672,9.78155914306641,9.78211282058172
1.08655966666993,0.012573852539063,0.096100158691406,9.79083984375,9.7913195325365
1.09659666666994,0.013172607421875,0.100740509033203,9.79143859863281,9.79196568613999
1.10663366666995,0.010627899169922,0.097147979736328,9.78874420166016,9.7892320295181
1.11667066666996,0.001197509765625,0.093106384277344,9.78096038818359,9.7814035980548
1.12670766666997,0.001646575927734,0.092058563232422,9.77931381225586,9.77974724258531
1.13674466666998,-0.009131011962891,0.092657318115234,9.7814094543457,9.78185256827884
1.14678066666238,0.002095642089844,0.09340576171875,9.78395416259766,9.78440024139702
1.15681766666239,-0.000748443603516,0.092956695556641,9.79203735351563,9.79247859533336
1.1668546666624,-0.009580078125,0.090262298583984,9.78694793701172,9.78736884878773
1.17689166666241,0.000449066162109,0.091759185791016,9.78350509643555,9.78393540053376
1.18692866666242,0.006735992431641,0.095351715087891,9.80206649780273,9.8025325783958
1.19696566666244,0.008532257080078,0.094752960205078,9.79248641967773,9.79294854486897
1.20700266666245,0.005089416503906,0.087418212890625,9.78545104980469,9.78584284025801
1.21703966666246,0.0047900390625,0.105231170654297,9.78440322875977,9.78497026498885
1.22707666666247,0.015118560791016,0.093854827880859,9.78724731445313,9.78770899106971
1.23711366666248,0.011825408935547,0.091908874511719,9.78874420166016,9.78918281201479
1.24715041666059,0.002544708251953,0.092208251953125,9.781259765625,9.78169471205797
1.2571874166606,0.001646575927734,0.088765411376953,9.79847396850586,9.79887616622213
1.26722441666061,-0.000748443603516,0.093854827880859,9.7857504272461,9.78620052488357
1.27726141666062,0.001496887207031,0.093555450439453,9.78500198364258,9.78544933474531
1.28729741666757,0,0.08861572265625,9.78051132202149,9.78091276244157
1.29733441666758,-0.005837860107422,0.088316345214844,9.79308517456055,9.79348513521312
1.30737141666759,-0.014220428466797,0.086669769287109,9.79083984375,9.79123376880854
1.3174084166676,0.002245330810547,0.087717590332031,9.78425354003906,9.78464699173818
1.32744541666762,0.012424163818359,0.095351715087891,9.79952178955078,9.79999355169672
1.33748241666763,0.014968872070313,0.095351715087891,9.7909895324707,9.79146526530387
1.34751941666764,0.013172607421875,0.095351715087891,9.7861994934082,9.78667287651628
1.35755641666765,0.006586303710938,0.104632415771484,9.78769638061524,9.78825785116715
1.36759341666766,0.009580078125,0.093106384277344,9.78320571899414,9.78365344423287
1.37763041666767,0.003442840576172,0.092208251953125,9.78425354003906,9.7846886281908
1.38766741666768,0.000748443603516,0.095950469970703,9.78919326782227,9.78966352269741
1.39770441666769,-0.006137237548828,0.093256072998047,9.78709762573242,9.78754383369254
1.4077414166677,-0.002993774414063,0.094303894042969,9.78006225585938,9.78051736441391
1.41777841666772,-0.008981323242188,0.086969146728516,9.79428268432617,9.79467291935475
1.42781441666011,-0.006286926269531,0.086669769287109,9.78021194458008,9.78059798045381
1.43785141666012,0.008981323242188,0.092507629394531,9.78365478515625,9.78409624241167
1.44788841666013,0.004191284179688,0.085621948242188,9.80101867675781,9.80139356352143
1.45792541666015,0.000898132324219,0.094004516601563,9.77197906494141,9.77243124823277
1.46796241666016,0.006735992431641,0.087717590332031,9.78919326782227,9.78958858093763
1.47799941666017,0.013172607421875,0.098345489501953,9.7811100769043,9.78161334798153
1.48803641666018,0.008681945800781,0.098345489501953,9.77242813110352,9.77292682818569
1.49807341666019,0.005688171386719,0.098345489501953,9.79248641967773,9.79298189879732
1.5081104166602,0.000449066162109,0.100141754150391,9.78006225585938,9.78057494736735
1.51814741666021,-0.002095642089844,0.102387084960938,9.78874420166016,9.78927987915444
1.52818441666022,0.002544708251953,0.090262298583984,9.78410385131836,9.7845205263962
1.53822141666024,0.000898132324219,0.089962921142578,9.79083984375,9.79125318740072
1.54825841666025,-0.0143701171875,0.09340576171875,9.78275665283203,9.78321311559345
1.55829541666026,-0.000449066162109,0.083376617431641,9.781259765625,9.7816151255623
1.56833141666721,0.005837860107422,0.084274749755859,9.77557159423828,9.77593659493224
1.57836841666722,-0.001496887207031,0.08861572265625,9.78440322875977,9.78480462400439
1.58840541666723,-0.003742218017578,0.091459808349609,9.78754669189453,9.78797472139945
1.59844241666724,0.006735992431641,0.091759185791016,9.78380447387695,9.78423707321249
1.60847941666725,0.005688171386719,0.09340576171875,9.78964233398438,9.79008958176354
1.61851641666726,0.003891906738281,0.09819580078125,9.78440322875977,9.78489673451865
1.62855341666727,0.000598754882813,0.103135528564453,9.7860498046875,9.78659328242387
1.63859041666728,0.009280700683594,0.102387084960938,9.80311431884766,9.80365337998891
1.6486274166673,0.004191284179688,0.094603271484375,9.77841567993164,9.77887419672488
1.65866441666731,0.007334747314453,0.095202026367188,9.79009140014649,9.79055702437633
1.66870141666732,0.002694396972656,0.100291442871094,9.78829513549805,9.78880928882073
1.67873841666733,0.003143463134766,0.089513854980469,9.79143859863281,9.79184826487781
1.68877541666734,0.001945953369141,0.088016967773438,9.79024108886719,9.79063692266718
1.69881141665974,0.003891906738281,0.090861053466797,9.77497283935547,9.77539589418824
1.70884841665975,-0.002694396972656,0.090262298583984,9.80386276245117,9.80427863778348
1.71888541665976,-0.005538482666016,0.086520080566406,9.78170883178711,9.7820930310948
1.72892241665977,0.009580078125,0.089364166259766,9.77991256713867,9.78032553410085
1.73895941665978,0.004640350341797,0.094902648925781,9.79413299560547,9.79459387525752
1.74899641665979,0.004939727783203,0.095950469970703,9.78679824829102,9.78726983618773
1.7590334166598,0.002544708251953,0.098944244384766,9.8001205444336,9.80062034385918
1.76907041665982,0.004041595458984,0.095651092529297,9.78230758666992,9.78277604702345
1.77910741665983,0.008083190917969,0.093256072998047,9.79697708129883,9.7974242515378
1.78914441665984,0.003143463134766,0.094004516601563,9.79353424072266,9.79398589210282
1.79918141665985,0.009879455566406,0.098794555664063,9.79518081665039,9.79568400872277
1.80921841665986,0.011825408935547,0.089813232421875,9.7956298828125,9.79604874722782
1.81925541665987,0.001347198486328,0.089214477539063,9.77886474609375,9.77927179090251
1.82929241665988,0.001646575927734,0.085023193359375,9.80161743164063,9.80198632578431
1.83932841666683,0.009879455566406,0.096249847412109,9.78485229492188,9.78533065717286
1.84936541666684,0.009879455566406,0.086819458007813,9.79757583618164,9.79796547695803
1.85940241666685,0.004191284179688,0.092807006835938,9.77961318969727,9.78005443990378
1.86943941666686,0.010029144287109,0.091459808349609,9.78275665283203,9.78318931682342
1.87947641666688,0.006286926269531,0.099093933105469,9.79353424072266,9.79403757687438
1.88951341666689,-0.000299377441406,0.096848602294922,9.77856536865234,9.77904496412611
1.8995504166669,0.008532257080078,0.101339263916016,9.78874420166016,9.78927246997228
1.90958741666691,0.00718505859375,0.097147979736328,9.77931381225586,9.77979897511253
1.91962441666692,0.000598754882813,0.096998291015625,9.79877334594727,9.79925344667715
1.92966141666693,0.005388793945313,0.091908874511719,9.78036163330078,9.78079495534264
1.93969841666694,0.000149688720703,0.093705139160156,9.77751754760742,9.77796656106385
1.94973541666695,-0.003442840576172,0.098495178222656,9.79113922119141,9.79163522615283
1.95977241666697,-0.000299377441406,0.094752960205078,9.77557159423828,9.77603080023651
1.96980941666698,0.002544708251953,0.088765411376953,9.79862365722656,9.79902604087554
1.97984541667392,0.001347198486328,0.095651092529297,9.78500198364258,9.78546957311375
1.98988241667394,0.004939727783203,0.085921325683594,9.78964233398438,9.79002062829578
1.99991941667395,0.010029144287109,0.094603271484375,9.78934295654297,9.78980520151081
2.00995641667396,0.008532257080078,0.091609497070313,9.77587097167969,9.77630392092502
2.01999341667397,0.003293151855469,0.090711364746094,9.79173797607422,9.79215869911417
2.03003041667398,0.003592529296875,0.096698913574219,9.76913497924805,9.76961421085403
2.04006741667399,0.009280700683594,0.091160430908203,9.79832427978516,9.79875272916894
2.050104416674,0.001047821044922,0.099992065429688,9.79293548583985,9.7934460197062
2.06014141667401,0.01197509765625,0.097597045898438,9.77991256713867,9.78040686307113
2.07017841667403,0,0.08861572265625,9.79712677001953,9.79752752964416
2.08021541667404,0.004041595458984,0.095651092529297,9.79054046630859,9.79100853275198
2.09025241667405,0.005239105224609,0.097597045898438,9.7861994934082,9.78668754770349
2.10028941667406,-0.011226654052734,0.091759185791016,9.77272750854492,9.77316472501149
2.11032541666646,-0.002694396972656,0.097447357177734,9.78395416259766,9.78443980527286
2.12036241666647,-0.002095642089844,0.086071014404297,9.79817459106445,9.79855284867196
2.13039941666648,0.006735992431641,0.08861572265625,9.77557159423828,9.7759755581719
2.14043641666649,0.003442840576172,0.088466033935547,9.79278579711914,9.79318598621357
2.1504734166665,0.008083190917969,0.095202026367188,9.78096038818359,9.78142703694182
2.16051041666651,0.003742218017578,0.092807006835938,9.7861994934082,9.78664026464121
2.17054741666652,0.001796264648438,0.100441131591797,9.77931381225586,9.77982976774445
2.18058441666653,0.010029144287109,0.096698913574219,9.79817459106445,9.79865687635824
2.19062141666654,0.003293151855469,0.101488952636719,9.7909895324707,9.79151606633556
2.20065841666656,-0.002095642089844,0.09580078125,9.7811100769043,9.7815794490421
2.21069541666657,0.001646575927734,0.092507629394531,9.78964233398438,9.79007954002661
2.22073241666658,0.002844085693359,0.0910107421875,9.79233673095703,9.79276006529657
2.23076941666659,0.004041595458984,0.086669769287109,9.79667770385742,9.79706190736076
2.2408064166666,0.003592529296875,0.086220703125,9.78799575805664,9.78837616132773
2.25084241667355,0.003592529296875,0.086969146728516,9.78006225585938,9.78044959433024
2.26087941667356,0.005089416503906,0.087118835449219,9.78829513549805,9.78868414309427
2.27091641667357,0.003592529296875,0.094154205322266,9.78350509643555,9.78395880472863
2.28095341667358,0.00718505859375,0.087867279052734,9.78739700317383,9.78779405083347
2.29099041667359,-0.003293151855469,0.096100158691406,9.78290634155274,9.78337889345713
2.30102741667361,0.000449066162109,0.095202026367188,9.79323486328125,9.79369760176779
2.31106441667362,0.006286926269531,0.10298583984375,9.78649887084961,9.78704274833777
2.32110141667363,0.001796264648438,0.100141754150391,9.7811100769043,9.78162286811395
2.33113841667364,0.003293151855469,0.092058563232422,9.7954801940918,9.79591332427754
2.34117541667365,0.010029144287109,0.095501403808594,9.78545104980469,9.78592220232658
2.35121241667366,0.007484436035156,0.094752960205078,9.80071929931641,9.8011801801744
2.36124941667367,-0.004490661621094,0.088466033935547,9.77781692504883,9.77821815184001
2.37128641667368,0.001796264648438,0.087268524169922,9.79233673095703,9.79272575304383
2.38132241666608,0.002993774414063,0.094752960205078,9.78724731445313,9.78770642594182
2.39135941666609,0.009879455566406,0.092357940673828,9.78739700317383,9.78783774337232
2.4013964166661,0.002095642089844,0.096399536132813,9.79233673095703,9.79281144078311
2.41143341666611,0.002095642089844,0.096998291015625,9.77437408447266,9.77485558989934
2.42147041666612,0.001347198486328,0.093555450439453,9.79263610839844,9.79308308903583
2.43150741666614,-0.001796264648438,0.095351715087891,9.78919326782227,9.78965780867307
2.44154441666615,0.001646575927734,0.091459808349609,9.78275665283203,9.78318431474563
2.45158141666616,0.003742218017578,0.095651092529297,9.77706848144531,9.77753707364841
2.46161841666617,0.005987548828125,0.101638641357422,9.78470260620117,9.78523230975933
2.47165541666618,0.006286926269531,0.09340576171875,9.7956298828125,9.79607722319569
2.48169241666619,0.003293151855469,0.085771636962891,9.78769638061524,9.7880727448086
2.4917294166662,0.012723541259766,0.094453582763672,9.79039077758789,9.79085465859223
2.50176641666621,0.001796264648438,0.098345489501953,9.78051132202149,9.78100591872137
2.51180241667316,0.004939727783203,0.095501403808594,9.78694793701172,9.78741512559971
2.52183941667317,0.006137237548828,0.093854827880859,9.78934295654297,9.78979478412182
2.53187641667319,0,0.096249847412109,9.7814094543457,9.78188299596199
2.5419134166732,0.000449066162109,0.097147979736328,9.79009140014649,9.79057340276091
2.55195041667321,-0.009131011962891,0.094154205322266,9.77018280029297,9.77064073338591
2.56198741667322,0.006586303710938,0.091160430908203,9.78006225585938,9.78048931966316
2.57202441667323,-0.000449066162109,0.095052337646484,9.79233673095703,9.79279805780772
2.58206141667324,0.002245330810547,0.096399536132813,9.77766723632813,9.77814269155659
2.59209841667325,0.002694396972656,0.099542999267578,9.79607894897461,9.79658506026573
2.60213541667326,0.002844085693359,0.096549224853516,9.77841567993164,9.77889273134623
2.61217241667327,0.000898132324219,0.094303894042969,9.78560073852539,9.78605517279062
2.62220941667329,-0.003442840576172,0.099393310546875,9.78036163330078,9.78086727041496
2.6322464166733,-0.002544708251953,0.097297668457031,9.77736785888672,9.77785229791381
2.64228341667331,0.006885681152344,0.092956695556641,9.78709762573242,9.78754148371648
2.6523194166657,0.00718505859375,0.089214477539063,9.77452377319336,9.77493354661768
2.66235641666572,0.000898132324219,0.090112609863281,9.79248641967773,9.79290107009516
2.67239341666573,0.003891906738281,0.096249847412109,9.77362564086914,9.77410033445123
2.68243041666574,0.011076965332031,0.095052337646484,9.78200820922852,9.78247628422717
2.69246741666575,0.002544708251953,0.089813232421875,9.77991256713867,9.78032528667299
2.70250441666576,-0.000598754882813,0.090411987304688,9.77512252807617,9.77554065639636
2.71254141666577,0.004340972900391,0.094603271484375,9.79682739257813,9.79728511287644
2.72257841666578,0.001347198486328,0.094303894042969,9.77587097167969,9.77632590978354
2.73261541666579,0.007783813476563,0.096998291015625,9.79278579711914,9.79326926641306
2.74265241666581,0.003891906738281,0.096249847412109,9.77482315063477,9.77529778606515
2.75268941666582,0.006735992431641,0.098495178222656,9.79338455200195,9.79388215454513
2.76272641666583,0.000449066162109,0.087717590332031,9.78724731445313,9.78764039856308
2.77276341666584,0.003592529296875,0.093854827880859,9.78051132202149,9.78096229187976
2.78279941667279,0.002095642089844,0.102087707519531,9.79443237304688,9.79496461463394
2.7928364166728,0.004939727783203,0.094004516601563,9.77542190551758,9.77587513632028
2.80287341667281,0.008831634521484,0.087418212890625,9.79143859863281,9.79183280966898
2.81291041667282,0.000748443603516,0.097746734619141,9.78200820922852,9.78249659288009
2.82294741667283,0.008232879638672,0.095651092529297,9.78664855957031,9.78711944038433
2.83298441667284,0.005089416503906,0.09580078125,9.77856536865234,9.77903596275499
2.84302141667285,0.008382568359375,0.094004516601563,9.78275665283203,9.78321188798051
2.85305841667287,0.004041595458984,0.100740509033203,9.79188766479492,9.79240670236981
2.86309541667288,0.001047821044922,0.095501403808594,9.78844482421875,9.78891075109142
2.87313241667289,0.006885681152344,0.095202026367188,9.79308517456055,9.79355033042803
2.8831694166729,0.001496887207031,0.092657318115234,9.79263610839844,9.7930745718993
2.89320641667291,0.001646575927734,0.097297668457031,9.78455291748047,9.78503680843741
2.90324341667292,-0.000898132324219,0.095202026367188,9.78934295654297,9.78980590988828
2.91327941666532,0.012124786376953,0.088316345214844,9.78350509643555,9.78391121991901
2.92331641666533,0.01197509765625,0.100291442871094,9.79652801513672,9.79704868457004
2.93335341666534,0.006586303710938,0.091908874511719,9.78021194458008,9.78064600634935
2.94339041666535,0.008981323242188,0.094752960205078,9.79009140014649,9.79055404003558
2.95342741666536,0.003143463134766,0.093256072998047,9.78230758666992,9.78275259304514
2.96346441666537,0.000598754882813,0.096100158691406,9.78724731445313,9.78771912108627
2.97350141666539,0.003442840576172,0.098944244384766,9.79488143920898,9.79538178045189
2.9835384166654,-0.000748443603516,0.096848602294922,9.78350509643555,9.78398447381815
2.99357541666541,0.005538482666016,0.096848602294922,9.79113922119141,9.79161976259849
3.00361241666542,0.001496887207031,0.097447357177734,9.79233673095703,9.79282170166201
3.01364941666543,0.011825408935547,0.095501403808594,9.7859001159668,9.78637325254381
3.02368641666544,0.008981323242188,0.099692687988281,9.79428268432617,9.79479415795437
3.03372341666545,0.007484436035156,0.095052337646484,9.7814094543457,9.78187414952975
3.0437594166724,0.001796264648438,0.0910107421875,9.78664855957031,9.78707189154652
3.05379641667241,-0.000898132324219,0.089513854980469,9.7764697265625,9.77687955593543
3.06383341667242,0.000149688720703,0.085472259521484,9.79054046630859,9.79091355042932
3.07387041667243,-0.00239501953125,0.093854827880859,9.78051132202149,9.78096192534382
3.08390741667245,0.010328521728516,0.089364166259766,9.79024108886719,9.79065438112876
3.09394441667246,-0.000149688720703,0.092058563232422,9.79398330688477,9.79441595078587
3.10398141667247,0.005987548828125,0.090411987304688,9.76913497924805,9.76955518030156
3.11401841667248,0.004041595458984,0.100291442871094,9.79637832641602,9.79689251866532
3.12405541667249,-0.005239105224609,0.093256072998047,9.79533050537109,9.79577581679104
3.1340924166725,-0.002844085693359,0.092507629394531,9.79158828735352,9.79202568110185
3.14412941667251,0.001796264648438,0.097896423339844,9.78185852050781,9.782348544777
3.15416641667252,-0.001646575927734,0.102836151123047,9.7811100769043,9.78165079737101
3.16420341667254,0.007634124755859,0.096698913574219,9.79203735351563,9.79251778106083
3.17423941666493,0.00239501953125,0.097147979736328,9.78215789794922,9.78264057432837
3.18427641666494,0.002245330810547,0.093555450439453,9.79488143920898,9.79532848208665
3.19431341666495,0.001646575927734,0.090861053466797,9.78275665283203,9.78317873550201
3.20435041666497,0.002993774414063,0.092357940673828,9.78096038818359,9.78139688731151
3.21438741666498,0.005987548828125,0.092657318115234,9.78051132202149,9.78095204719519
3.22442441666499,0.012274475097656,0.09580078125,9.77856536865234,9.77904234173439
3.234461416665,0.009280700683594,0.087118835449219,9.78769638061524,9.78808848866845
3.24449841666501,0.001496887207031,0.090411987304688,9.78245727539063,9.7828751864144
3.25453554166597,0.005688171386719,0.093854827880859,9.78051132202149,9.78096328610842
3.26457254166598,0.002844085693359,0.098046112060547,9.7906901550293,9.79118148339112
3.274609541666,-0.000748443603516,0.099093933105469,9.78395416259766,9.7844560003895
3.28464654166601,0.002245330810547,0.101189575195313,9.78979202270508,9.79031522574522
3.29468354166602,0.004191284179688,0.090262298583984,9.77781692504883,9.77823443517183
3.30471954167297,0.005538482666016,0.089513854980469,9.79203735351563,9.79244805641924
3.31475654167298,0.002844085693359,0.092657318115234,9.78515167236328,9.78559077003416
3.32479354167299,0.001347198486328,0.093854827880859,9.78964233398438,9.79009231677615
3.334830541673,0.002844085693359,0.094154205322266,9.78904357910156,9.78949678465409
3.34486754167301,-0.003891906738281,0.093854827880859,9.78724731445313,9.78769808841305
3.35490454167302,-0.005089416503906,0.092956695556641,9.79428268432617,9.79472511864936
3.36494154167303,0.00718505859375,0.088915100097656,9.78290634155274,9.78331303841828
3.37497854167304,0.004640350341797,0.089064788818359,9.7956298828125,9.79603587531751
3.38501554167306,-0.0047900390625,0.098644866943359,9.77706848144531,9.77756727643026
3.39505254167307,0.003592529296875,0.094303894042969,9.77377532958984,9.77423093261038
3.40508954167308,0.00239501953125,0.102836151123047,9.78380447387695,9.78434520001983
3.41512654167309,0.000598754882813,0.105829925537109,9.78545104980469,9.78602332818445
3.42516254166549,0.006885681152344,0.092657318115234,9.7956298828125,9.79607051792985
3.4351995416655,0.006586303710938,0.101339263916016,9.78215789794922,9.78268501824616
3.44523654166551,0.006885681152344,0.098046112060547,9.78380447387695,9.78429815754558
3.45527354166552,0.009131011962891,0.093555450439453,9.78200820922852,9.78245984418543
3.46531054166553,0.001646575927734,0.094154205322266,9.78440322875977,9.78485637444703
3.47534754166554,-0.000598754882813,0.08861572265625,9.78784606933594,9.78824722725291
3.48538454166555,0.006137237548828,0.089364166259766,9.78230758666992,9.78271768682486
3.49542154166556,-0.001197509765625,0.092956695556641,9.78694793701172,9.78738945291626
3.50545854166558,-0.000449066162109,0.089364166259766,9.77991256713867,9.78032085244388
3.51549554166559,0.002095642089844,0.079634399414063,9.80670684814453,9.80703039837905
3.5255325416656,0.000748443603516,0.093555450439453,9.79293548583985,9.79338238875089
3.53556954166561,0.009580078125,0.094752960205078,9.77377532958984,9.77423931028208
3.54560654166562,0.007933502197266,0.099842376708984,9.7909895324707,9.79150179827359
3.55564254167257,0.002694396972656,0.106278991699219,9.78215789794922,9.78273559002092
3.56567954167258,0.001197509765625,0.092357940673828,9.79128890991211,9.79172456417168
3.57571654167259,-0.000299377441406,0.092956695556641,9.77946350097656,9.77990528603465
3.5857535416726,0.000598754882813,0.093256072998047,9.78724731445313,9.78769160976828
3.59579054167261,0.006885681152344,0.094004516601563,9.78904357910156,9.78949735457832
3.60582754167262,-0.000748443603516,0.090262298583984,9.77362564086914,9.77404246003506
3.61586454167264,-0.005837860107422,0.095501403808594,9.78440322875977,9.78487103347329
3.62590154167265,-0.002095642089844,0.094603271484375,9.77572128295899,9.77617925228402
3.63593854167266,0.005388793945313,0.088166656494141,9.78664855957031,9.78704717608724
3.64597554167267,0.011376342773438,0.098345489501953,9.78560073852539,9.78610152564896
3.65601254167268,0.004939727783203,0.096249847412109,9.78395416259766,9.78442882798222
3.66604954167269,-0.001496887207031,0.093106384277344,9.7909895324707,9.7914323295632
3.6760865416727,-0.00239501953125,0.096998291015625,9.78470260620117,9.78518367208192
3.6861225416651,0.002694396972656,0.095950469970703,9.79413299560547,9.79460335532126
3.69615954166511,0.007783813476563,0.093106384277344,9.79188766479492,9.79233340049798
3.70619654166512,0.009430389404297,0.094752960205078,9.7909895324707,9.79145255213254
3.71623354166513,0.004490661621094,0.1005908203125,9.78874420166016,9.78926206231646
3.72627054166514,0.000748443603516,0.100291442871094,9.78320571899414,9.78371979738998
3.73630754166516,-0.000449066162109,0.092058563232422,9.79039077758789,9.79082358939241
3.74634454166517,0.002993774414063,0.091310119628906,9.77871505737305,9.77914181684294
3.75638154166518,0.000449066162109,0.089813232421875,9.78979202270508,9.79020400534118
3.76641854166519,0.007035369873047,0.096848602294922,9.78694793701172,9.78742964572281
3.7764555416652,0.001646575927734,0.090411987304688,9.7906901550293,9.79110773868045
3.78649254166521,-0.001197509765625,0.090561676025391,9.78170883178711,9.78212811820905
3.79652954166522,0.005239105224609,0.092058563232422,9.77317657470703,9.77361154270468
3.80656654166523,0.009580078125,0.094004516601563,9.79473175048828,9.79518752710032
3.81660254167218,0.007634124755859,0.098794555664063,9.78275665283203,9.78325847418022
3.82663954167219,0.005239105224609,0.097447357177734,9.79518081665039,9.79566693321697
3.8366765416722,-0.004041595458984,0.103584594726563,9.79218704223633,9.79273573486488
3.84671354167222,0.005089416503906,0.099393310546875,9.7857504272461,9.78625650372444
3.85675054167223,0.006735992431641,0.093106384277344,9.79278579711914,9.79323071517493
3.86678754167224,0.001047821044922,0.088316345214844,9.78380447387695,9.7842031284012
3.87682454167225,0.001197509765625,0.0910107421875,9.79113922119141,9.79156226748193
3.88686154167226,-0.004490661621094,0.094752960205078,9.78515167236328,9.78561145461352
3.89689854167227,-0.006137237548828,0.098794555664063,9.77991256713867,9.78041348056362
3.90693554167228,-0.003891906738281,0.097297668457031,9.78949264526367,9.78997692718919
3.91697254167229,0.009879455566406,0.098794555664063,9.78859451293945,9.78909804356967
3.92700954167231,0.0047900390625,0.093106384277344,9.79398330688477,9.79442702554901
3.9370455416647,0.006137237548828,0.097297668457031,9.77946350097656,9.77994943079486
3.94708254166471,-0.004939727783203,0.096549224853516,9.78440322875977,9.78488082179313
3.95711954166472,0.002095642089844,0.095351715087891,9.7857504272461,9.78621519105487
3.96715654166474,0.000449066162109,0.093106384277344,9.77901443481445,9.77945766986918
3.97719354166475,0.006586303710938,0.0910107421875,9.79458206176758,9.79500710052266
3.98723054166476,0.006286926269531,0.092357940673828,9.77587097167969,9.77630926114641
3.99726754166477,0.003442840576172,0.094453582763672,9.79083984375,9.79129604181237
4.00730454166478,-0.003742218017578,0.094303894042969,9.77602066040039,9.77647621493566
4.01734154166479,-0.001047821044922,0.093705139160156,9.78230758666992,9.78275643524124
4.0273785416648,0.004939727783203,0.089813232421875,9.77871505737305,9.77912874395889
4.03741554166481,0.004640350341797,0.087268524169922,9.77676910400391,9.77715968168504
4.04745254166483,0.004640350341797,0.085023193359375,9.78889389038086,9.78926422533359
4.05748954166484,0.006735992431641,0.092208251953125,9.77796661376953,9.77840369566086
4.06752554167178,-0.002844085693359,0.09580078125,9.78859451293945,9.78906371504752
4.0775625416718,0.0047900390625,0.094603271484375,9.77976287841797,9.78022160697455
4.08759954167181,0.00239501953125,0.092058563232422,9.78036163330078,9.78079517183163
4.09763654167182,-0.001197509765625,0.090561676025391,9.78215789794922,9.78257716512394
4.10767354167183,0.005388793945313,0.096249847412109,9.78410385131836,9.78457874645658
4.11771054167184,-0.002544708251953,0.095351715087891,9.79248641967773,9.79295097019704
4.12774754167185,-0.002544708251953,0.096698913574219,9.77886474609375,9.77934317210628
4.13778454167186,0.000149688720703,0.086370391845703,9.79787521362305,9.79825589422542
4.14782154167187,-0.000299377441406,0.093106384277344,9.78440322875977,9.78484621398745
4.15785854167189,0.004340972900391,0.089813232421875,9.77691879272461,9.77733227114101
4.1678955416719,-0.00718505859375,0.095651092529297,9.78859451293945,9.7890644749801
4.17793254167191,-0.000748443603516,0.099093933105469,9.78335540771484,9.78385727621828
4.1879685416643,0.000449066162109,0.101339263916016,9.79443237304688,9.79495662870746
4.19800554166432,0.001945953369141,0.0910107421875,9.77916412353516,9.77958780813206
4.20804254166433,0.013322296142578,0.091310119628906,9.78994171142578,9.79037658798861
4.21807954166434,0.00718505859375,0.102087707519531,9.78979202270508,9.79032692880649
4.22811654166435,0.000748443603516,0.098644866943359,9.78649887084961,9.78699604164029
4.23815354166436,0.003742218017578,0.094902648925781,9.79233673095703,9.79279731074932
4.24819054166437,0.005987548828125,0.099692687988281,9.78305603027344,9.78356580057848
4.25822770832747,-0.006436614990234,0.095651092529297,9.78994171142578,9.79041108813256
4.26826470832748,-0.005837860107422,0.089663543701172,9.78290634155274,9.78331897258146
4.27830170832749,0.002095642089844,0.085023193359375,9.7909895324707,9.79135891284125
4.2883387083275,0.001646575927734,0.099542999267578,9.78664855957031,9.78715492614964
4.29837570832751,0.000449066162109,0.092956695556641,9.77407470703125,9.77451674138099
4.30841170833446,-0.001945953369141,0.092807006835938,9.79802490234375,9.79846462024539
4.31844870833447,0.001796264648438,0.097896423339844,9.78036163330078,9.78085173256457
4.32848570833448,0.005089416503906,0.092507629394531,9.78919326782227,9.78963167838471
4.33852270833449,0.004939727783203,0.095501403808594,9.78305603027344,9.78352340471006
4.34855970833451,0.001945953369141,0.099243621826172,9.7814094543457,9.78191310515337
4.35859670833452,0.003143463134766,0.097297668457031,9.79308517456055,9.79356901001087
4.36863370833453,0.003293151855469,0.100291442871094,9.79368392944336,9.7941979828978
4.37867070833454,0.000149688720703,0.092507629394531,9.79248641967773,9.79292336146239
4.38870770833455,0.000598754882813,0.092357940673828,9.78694793701172,9.78738372955157
4.39874470833456,-0.003891906738281,0.098944244384766,9.78081069946289,9.78131192883463
4.40878170833457,-0.003293151855469,0.101039886474609,9.78275665283203,9.78327898161129
4.41881870833458,0.001047821044922,0.092507629394531,9.78889389038086,9.78933104744961
4.4288557083346,0.003143463134766,0.092956695556641,9.7859001159668,9.78634211073209
4.43889170832699,0.002844085693359,0.092657318115234,9.7764697265625,9.77690921415438
4.448928708327,0.008232879638672,0.089813232421875,9.79473175048828,9.795146974959
4.45896570832701,0.002694396972656,0.094902648925781,9.79173797607422,9.79219823965192
4.46900270832703,-0.000898132324219,0.092657318115234,9.78560073852539,9.78603944397685
4.47903970832704,0.009729766845703,0.103285217285156,9.79113922119141,9.79168881006873
4.48907670832705,0.003442840576172,0.097447357177734,9.78290634155274,9.78339227099501
4.49911370832706,-0.003442840576172,0.094752960205078,9.78230758666992,9.78276707771573
4.50915070832707,0.001197509765625,0.09580078125,9.77227844238281,9.77274808736916
4.51918770832708,0.000898132324219,0.097896423339844,9.79203735351563,9.79252674486977
4.52922470832709,0.003891906738281,0.089364166259766,9.78006225585938,9.78047129895255
4.5392617083271,0.006137237548828,0.09580078125,9.78799575805664,9.78846649966723
4.54929870832711,0.011825408935547,0.090112609863281,9.7906901550293,9.79111198151367
4.55933470833406,0.008532257080078,0.095501403808594,9.78170883178711,9.78217874440057
4.56937170833407,0.001646575927734,0.091908874511719,9.79083984375,9.79127135761178
4.57940870833409,-0.000449066162109,0.087118835449219,9.77931381225586,9.77970186313104
4.5894457083341,0.009280700683594,0.09340576171875,9.8001205444336,9.80057005756078
4.59948270833411,-0.004640350341797,0.095052337646484,9.78515167236328,9.78561442786794
4.60951970833412,0.0047900390625,0.097147979736328,9.78515167236328,9.78563508034072
4.61955670833413,0.001047821044922,0.090561676025391,9.78724731445313,9.7876663464466
4.62959370833414,0.002694396972656,0.092507629394531,9.7715299987793,9.77196824791787
4.63963070833415,0.003143463134766,0.095351715087891,9.79353424072266,9.79399891541437
4.64966770833416,0.007783813476563,0.094752960205078,9.77961318969727,9.7800752988574
4.65970470833418,0.010178833007813,0.099243621826172,9.77721817016602,9.77772714142398
4.66974170833419,-0.005388793945313,0.092657318115234,9.78485229492188,9.78529247652508
4.6797787083342,0.001796264648438,0.094303894042969,9.78051132202149,9.78096611645234
4.68981470832659,0.003592529296875,0.092807006835938,9.7956298828125,9.79607017368872
4.69985170832661,-0.003742218017578,0.094303894042969,9.77811630249023,9.77857175939578
4.70988870832662,0.004939727783203,0.087268524169922,9.78934295654297,9.78973317905237
4.71992570832663,-0.002844085693359,0.102237396240234,9.78814544677734,9.78867978132299
4.72996270832664,0.006735992431641,0.093555450439453,9.79054046630859,9.7909897670423
4.73999970832665,0.002245330810547,0.096698913574219,9.79712677001953,9.79760423109804
4.75003670832666,-0.000299377441406,0.097896423339844,9.79263610839844,9.79312543322297
4.76007370832667,-0.003143463134766,0.092956695556641,9.78440322875977,9.78484529114149
4.77011070832668,-0.01197509765625,0.095202026367188,9.77946350097656,9.77993421223891
4.78014770832669,0.003891906738281,0.094154205322266,9.78545104980469,9.78590478236129
4.79018470832671,-0.007334747314453,0.096998291015625,9.78664855957031,9.78713198518942
4.80022170832672,0.002694396972656,0.095052337646484,9.7811100769043,9.78157229402236
4.81025770833367,0.005089416503906,0.101189575195313,9.79353424072266,9.79405830881641
4.82029470833368,-0.000598754882813,0.093106384277344,9.78410385131836,9.78454686384011
4.83033170833369,0.005538482666016,0.0910107421875,9.79622863769531,9.79665295659622
4.8403687083337,0.005239105224609,0.098345489501953,9.77212875366211,9.77262501386801
4.85040570833371,0.005837860107422,0.088466033935547,9.79458206176758,9.79498331210779
4.86044270833372,-0.006137237548828,0.092657318115234,9.78724731445313,9.78768782903066
4.87047970833373,-0.001496887207031,0.093555450439453,9.77946350097656,9.77991110541967
4.88051670833374,0.007035369873047,0.095651092529297,9.79413299560547,9.79460258323629
4.89055370833376,-0.001047821044922,0.093555450439453,9.78739700317383,9.78784418643717
4.90059070833377,0.008681945800781,0.094303894042969,9.79607894897461,9.7965367030986
4.91062770833378,0.003742218017578,0.102836151123047,9.78275665283203,9.78329785944918
4.92066470833379,0.007484436035156,0.091759185791016,9.78485229492188,9.78528539177053
4.93070070834074,0.009430389404297,0.09340576171875,9.78425354003906,9.78470392522602
4.94073770834075,0.001197509765625,0.09819580078125,9.78096038818359,9.78145336668009
4.95077470834076,0.007783813476563,0.093555450439453,9.78844482421875,9.78889499825358
4.96081170834077,0.003891906738281,0.094453582763672,9.78410385131836,9.78456053175705
4.97084870834078,0.003592529296875,0.092058563232422,9.7861994934082,9.78663313965095
4.98088570832624,-0.013322296142578,0.098794555664063,9.78320571899414,9.78371360925712
4.99092270832625,-0.003293151855469,0.09819580078125,9.77886474609375,9.77935831138912
5.00095970832626,0.005538482666016,0.089364166259766,9.78395416259766,9.78436383649001
5.01099670832627,0.0047900390625,0.100740509033203,9.78021194458008,9.78073193966287
5.02103370832629,0.005688171386719,0.092058563232422,9.79607894897461,9.79651315055013
5.0310707083263,-0.002095642089844,0.087567901611328,9.7861994934082,9.78659149315488
5.04110770832631,-0.005538482666016,0.091609497070313,9.7906901550293,9.79112029782758
5.05114370833326,0,0.100441131591797,9.78290634155274,9.78342194267978
5.06118070833327,0.005239105224609,0.093106384277344,9.77901443481445,9.7794590629199
5.07121770833328,0.002544708251953,0.096249847412109,9.78904357910156,9.78951708217604
5.08125470833329,0.006286926269531,0.091459808349609,9.77197906494141,9.77240908208607
5.0912917083333,-0.000149688720703,0.093555450439453,9.79113922119141,9.79158617862634
5.10132870833331,0.001796264648438,0.099842376708984,9.781259765625,9.78176948866554
5.11136570833332,0.004490661621094,0.092956695556641,9.78679824829102,9.7872407279091
5.12140270833334,-0.003742218017578,0.089364166259766,9.79024108886719,9.79064964834052
5.13143970833335,0.00718505859375,0.089663543701172,9.77871505737305,9.77912876228912
5.14147670833336,0.004191284179688,0.09580078125,9.79054046630859,9.79101005918068
5.15151370833337,0.004490661621094,0.096698913574219,9.78170883178711,9.78218781846833
5.16155070833338,-0.000149688720703,0.096998291015625,9.79009140014649,9.79057190944885
5.17158770833339,0,0.096549224853516,9.79263610839844,9.79311205410868
5.18162370834034,0.006586303710938,0.091609497070313,9.7861994934082,9.78663048266016
5.19166070834035,-0.003891906738281,0.097896423339844,9.78934295654297,9.78983321499699
5.20169770834036,0.008831634521484,0.095351715087891,9.77377532958984,9.77424442812014
5.21173470834037,0.002993774414063,0.089364166259766,9.7859001159668,9.78630859908758
5.22177170834038,-0.007783813476563,0.088016967773438,9.76913497924805,9.7695345752567
5.2318087083404,0.004490661621094,0.091908874511719,9.79054046630859,9.79097288473836
5.24184570834041,0.007334747314453,0.09819580078125,9.78455291748047,9.7850483907227
5.25188216665993,0.007035369873047,0.091310119628906,9.77931381225586,9.77974261792989
5.26191916665994,0.006286926269531,0.080083465576172,9.78889389038086,9.78922348728623
5.27195616665995,0.001496887207031,0.083675994873047,9.78949264526367,9.78985036476354
5.28199316665996,0.001496887207031,0.089214477539063,9.79323486328125,9.79364133257193
5.29203016665997,-0.003742218017578,0.094154205322266,9.77721817016602,9.77767222633281
5.30206616666692,0.008532257080078,0.096848602294922,9.78515167236328,9.78563466017056
5.31210316666693,-0.001496887207031,0.094603271484375,9.78365478515625,9.78411227320893
5.32214016666694,-0.004340972900391,0.095202026367188,9.77706848144531,9.77753293836137
5.33217716666695,-0.008083190917969,0.095950469970703,9.78440322875977,9.78487702393993
5.34221416666696,0.000598754882813,0.095052337646484,9.77362564086914,9.77408785888761
5.35225116666697,0.009280700683594,0.090561676025391,9.78215789794922,9.78258149411391
5.36228816666699,-0.000598754882813,0.098046112060547,9.78081069946289,9.78130212892565
5.372325166667,0.000299377441406,0.092208251953125,9.78320571899414,9.78364025256013
5.38236216666701,-0.002095642089844,0.091310119628906,9.79727645874024,9.79770217646199
5.39239916666702,0.005239105224609,0.095351715087891,9.78859451293945,9.78906031938419
5.40243616666703,0.000898132324219,0.094752960205078,9.79488143920898,9.79533977656058
5.41247316666704,0.002844085693359,0.101638641357422,9.7764697265625,9.77699845640949
5.42250916667399,0.005089416503906,0.094603271484375,9.79158828735352,9.79204661294943
5.432546166674,0.001047821044922,0.106278991699219,9.78769638061524,9.78827343105586
5.44258316667401,-0.004041595458984,0.091908874511719,9.78530136108398,9.78573381525064
5.45262016667402,-0.00718505859375,0.099243621826172,9.78410385131836,9.78460980800578
5.46265716667403,-0.003742218017578,0.095651092529297,9.77676910400391,9.77723771055522
5.47269416667405,0.006286926269531,0.095651092529297,9.79083984375,9.7913090801438
5.48273116667406,-0.001796264648438,0.097746734619141,9.78290634155274,9.78339481664152
5.49276816667407,0.004640350341797,0.088166656494141,9.78470260620117,9.78510091843557
5.50280516667408,-0.000748443603516,0.093555450439453,9.79847396850586,9.79892061882133
5.51284216667409,0.003442840576172,0.091160430908203,9.7857504272461,9.78617563206699
5.5228791666741,0.001646575927734,0.094004516601563,9.8052099609375,9.80566070891818
5.53291616667411,-0.008831634521484,0.092956695556641,9.78709762573242,9.78754304617019
5.54295216666651,0.002095642089844,0.091759185791016,9.78649887084961,9.78692925738372
5.55298916666652,0.004041595458984,0.097597045898438,9.77976287841797,9.78025068574135
5.56302616666653,0.005388793945313,0.091160430908203,9.7861994934082,9.78662555675073
5.57306316666654,-0.00239501953125,0.097447357177734,9.78634918212891,9.78683462811621
5.58310016666655,-0.00239501953125,0.090262298583984,9.77811630249023,9.77853319489634
5.59313716666657,0.00239501953125,0.09580078125,9.79712677001953,9.79759544345652
5.60317416666658,0.001796264648438,0.103285217285156,9.77991256713867,9.78045811215166
5.61321116666659,0.001796264648438,0.094752960205078,9.7909895324707,9.79144817557573
5.6232481666666,0.005239105224609,0.097147979736328,9.7954801940918,9.79596332225857
5.63328516666661,0.004041595458984,0.095651092529297,9.77108093261719,9.7715499311906
5.64332216666662,-0.000299377441406,0.095351715087891,9.79398330688477,9.79444746041013
5.65335916666663,-0.005837860107422,0.104632415771484,9.77766723632813,9.77822880727411
5.66339616666664,0.001347198486328,0.087867279052734,9.78215789794922,9.78255261238508
5.67343216667359,0.002245330810547,0.095501403808594,9.77856536865234,9.7790319678712
5.6834691666736,0.005388793945313,0.092058563232422,9.77003311157227,9.77046830092514
5.69350616667361,-0.003143463134766,0.100740509033203,9.78889389038086,9.78941275708898
5.70354316667363,-0.000748443603516,0.09340576171875,9.78036163330078,9.78080768007592
5.71358016667364,-0.001796264648438,0.098046112060547,9.79009140014649,9.79058251024315
5.72361716667365,0.012723541259766,0.094603271484375,9.78290634155274,9.78337202374879
5.73365416667366,0.007783813476563,0.097147979736328,9.79024108886719,9.79072616795417
5.74369116667367,0.000449066162109,0.090262298583984,9.78081069946289,9.781227194117
5.75372816667368,0.004939727783203,0.095052337646484,9.78515167236328,9.78561457441261
5.76376516667369,0.005837860107422,0.097447357177734,9.78814544677734,9.78863225150989
5.7738021666737,0.007634124755859,0.095202026367188,9.78215789794922,9.78262412883657
5.7838381666661,0.000748443603516,0.092357940673828,9.79847396850586,9.79890925873183
5.79387516666611,0.006286926269531,0.091160430908203,9.7811100769043,9.78153689795853
5.80391216666612,0.008083190917969,0.094752960205078,9.7857504272461,9.78621248930301
5.81394916666613,-0.000748443603516,0.097597045898438,9.79323486328125,9.79372119426131
5.82398616666615,0.003891906738281,0.092657318115234,9.78185852050781,9.78229812675783
5.83402316666616,0.003143463134766,0.094154205322266,9.79368392944336,9.79413701178299
5.84406016666617,0.007634124755859,0.094154205322266,9.7811100769043,9.78156621563027
5.85409716666618,0.004640350341797,0.098046112060547,9.78874420166016,9.78923631436471
5.86413416666619,0.004041595458984,0.092208251953125,9.78470260620117,9.78513790337275
5.8741711666662,0.007035369873047,0.093256072998047,9.78350509643555,9.78395207283645
5.88420816666621,0.005239105224609,0.090561676025391,9.79233673095703,9.79275689057164
5.89424516666622,-0.002095642089844,0.100291442871094,9.78155914306641,9.78207350384033
5.90428116667317,0.006286926269531,0.093705139160156,9.79742614746094,9.7978762644513
5.91431816667318,0.000449066162109,0.085621948242188,9.77557159423828,9.77594656868375
5.92435516667319,0.006586303710938,0.089364166259766,9.78530136108398,9.78571162771722
5.93439216667321,0.006735992431641,0.094154205322266,9.78470260620117,9.78515791797833
5.94442916667322,0.003442840576172,0.099243621826172,9.78634918212891,9.78685299083314
5.95446616667323,-0.008681945800781,0.101488952636719,9.79832427978516,9.79885371232357
5.96450316667324,0.002544708251953,0.090861053466797,9.77048217773438,9.77090498326548
5.97454016667325,0.002095642089844,0.094303894042969,9.78949264526367,9.78994708197235
5.98457716667326,-0.008083190917969,0.094453582763672,9.7857504272461,9.78620959522222
5.99461416667327,0.004490661621094,0.099093933105469,9.78739700317383,9.78789966598331
6.00465116667328,-0.002694396972656,0.092357940673828,9.78440322875977,9.78483948728568
6.0146881666733,0.003143463134766,0.086969146728516,9.77691879272461,9.77730610103697
6.02472416666569,-0.003592529296875,0.101638641357422,9.79742614746094,9.79795399226976
6.0347611666657,-0.002245330810547,0.098644866943359,9.78096038818359,9.78145806955698
6.04479816666571,0.006586303710938,0.086819458007813,9.79143859863281,9.7918257147726
6.05483516666573,0.006735992431641,0.089813232421875,9.77721817016602,9.7776329925671
6.06487216666574,0.00239501953125,0.099692687988281,9.79054046630859,9.79104830907207
6.07490916666575,0.001945953369141,0.097297668457031,9.79383361816406,9.79431710551084
6.08494616666576,0.000299377441406,0.095501403808594,9.77332626342774,9.77379285943602
6.09498316666577,-0.000898132324219,0.097297668457031,9.78814544677734,9.7886290628564
6.10502016666578,0.007634124755859,0.096399536132813,9.78066101074219,9.78113904192553
6.11505716666579,0.006735992431641,0.101039886474609,9.78859451293945,9.78911829385064
6.1250941666658,-0.000898132324219,0.104033660888672,9.78096038818359,9.78151368268
6.13513116666582,0.007634124755859,0.099842376708984,9.79203735351563,9.79254932653867
6.14516716667276,-0.000449066162109,0.082777862548828,9.79772552490234,9.79807521085195
6.15520416667277,-0.000299377441406,0.088915100097656,9.78200820922852,9.78241230934713
6.16524116667279,0.012424163818359,0.09819580078125,9.7861994934082,9.78670002094274
6.1752781666728,0.005089416503906,0.09819580078125,9.78799575805664,9.78848963207227
6.18531516667281,0.006286926269531,0.097597045898438,9.79308517456055,9.7935735023028
6.19535216667282,0.002544708251953,0.089813232421875,9.78739700317383,9.78780940711425
6.20538916667283,0.001796264648438,0.096399536132813,9.78545104980469,9.78592603411946
6.21542616667284,0.01197509765625,0.101039886474609,9.78979202270508,9.79032074599411
6.22546316667285,-0.000449066162109,0.09580078125,9.78200820922852,9.78247732411185
6.23550016667286,0.007484436035156,0.091759185791016,9.7956298828125,9.79606250316978
6.24553716667288,0.004191284179688,0.098944244384766,9.79113922119141,9.79164004542204
6.25557454166119,0.014819183349609,0.102237396240234,9.79727645874024,9.79782108952652
6.26561054166814,-0.001945953369141,0.099393310546875,9.78096038818359,9.78146558201441
6.27564754166815,0.004939727783203,0.098495178222656,9.79233673095703,9.79283331592517
6.28568454166816,0.004640350341797,0.096549224853516,9.79428268432617,9.7947596492289
6.29572154166817,0.008382568359375,0.098345489501953,9.78994171142578,9.79043925551209
6.30575854166818,0.003143463134766,0.097597045898438,9.77736785888672,9.77785545570805
6.31579554166819,-0.001646575927734,0.089364166259766,9.78455291748047,9.78496113739851
6.32583254166821,0.009729766845703,0.100890197753906,9.77991256713867,9.78043778781107
6.33586954166822,0.007334747314453,0.096698913574219,9.8002702331543,9.80075002850572
6.34590654166823,-0.000149688720703,0.089663543701172,9.79338455200195,9.7937950027998
6.35594354166824,0.001197509765625,0.094603271484375,9.79173797607422,9.79219504529496
6.36598054166825,0.001496887207031,0.095351715087891,9.78081069946289,9.78127558802886
6.37601754166826,0.004939727783203,0.092208251953125,9.79278579711914,9.79322114683913
6.38605354166066,0.000598754882813,0.094154205322266,9.78649887084961,9.78695179931055
6.39609054166067,0.011675720214844,0.096549224853516,9.78784606933594,9.78832921147819
6.40612754166068,-0.003742218017578,0.097447357177734,9.79533050537109,9.79581592829664
6.41616454166069,0.002095642089844,0.095501403808594,9.78979202270508,9.79025805368097
6.4262015416607,0.003742218017578,0.087867279052734,9.7860498046875,9.78644498491398
6.43623854166071,0.004041595458984,0.093256072998047,9.78979202270508,9.79023701845184
6.44627554166073,0.005538482666016,0.0910107421875,9.77721817016602,9.77764331406133
6.45631254166074,0.005688171386719,0.085322570800781,9.79682739257813,9.79720058263333
6.46634954166075,0.007634124755859,0.096998291015625,9.78275665283203,9.78324049979607
6.47638654166076,0.008831634521484,0.090711364746094,9.78889389038086,9.7893181655618
6.48642354166077,0.001796264648438,0.092657318115234,9.77721817016602,9.77765737547555
6.49646054166078,0.007334747314453,0.090112609863281,9.79203735351563,9.79245472869902
6.50649654166773,0.001796264648438,0.102686462402344,9.78260696411133,9.78314605586602
6.51653354166774,0.003742218017578,0.094154205322266,9.77617034912109,9.77662445395189
6.52657054166775,-0.001496887207031,0.0910107421875,9.79233673095703,9.79275976670086
6.53660754166776,0.001945953369141,0.092807006835938,9.79083984375,9.7912798843264
6.54664454166777,0.011526031494141,0.096549224853516,9.79173797607422,9.79222074885548
6.55668154166779,0.002245330810547,0.094303894042969,9.79039077758789,9.79084520579404
6.5667185416678,0.001047821044922,0.089513854980469,9.78485229492188,9.78526178809746
6.57675554166781,-0.000149688720703,0.092956695556641,9.78021194458008,9.78065369239512
6.58679254166782,0.0047900390625,0.092357940673828,9.77871505737305,9.77915237160021
6.59682954166783,0,0.09340576171875,9.78485229492188,9.78529810837463
6.60686654166784,0.003143463134766,0.097297668457031,9.7718293762207,9.77231426406343
6.61690354166785,0.004340972900391,0.092956695556641,9.80326400756836,9.80370567659902
6.62693954166025,0.008532257080078,0.098944244384766,9.77422439575195,9.77472891191466
6.63697654166026,0.01197509765625,0.091759185791016,9.78545104980469,9.78588858506291
6.64701354166027,0.004640350341797,0.093854827880859,9.79622863769531,9.79667932432054
6.65705054166028,0.003442840576172,0.089962921142578,9.77587097167969,9.77628551318246
6.66708754166029,0.002993774414063,0.092657318115234,9.78170883178711,9.78214812866517
6.67712454166031,0.002844085693359,0.101039886474609,9.78889389038086,9.78941575093315
6.68716154166032,0.000149688720703,0.084424438476563,9.7859001159668,9.78626428152734
6.69719854166033,0.001197509765625,0.092507629394531,9.79533050537109,9.79576739234754
6.70723554166034,0.005688171386719,0.095351715087891,9.77946350097656,9.77992999319508
6.71727254166035,0.010777587890625,0.092807006835938,9.79248641967773,9.79293212355173
6.72730954166036,0.002844085693359,0.085771636962891,9.78634918212891,9.78672545732667
6.73734654166037,0.003143463134766,0.097746734619141,9.79443237304688,9.79492061303602
6.74738254166732,0.002095642089844,0.097447357177734,9.77407470703125,9.77456069385038
6.75741954166733,0.005538482666016,0.090561676025391,9.78410385131836,9.78452452934416
6.76745654166734,0.003592529296875,0.093705139160156,9.78859451293945,9.78904367638229
6.77749354166735,-0.008382568359375,0.093705139160156,9.7716796875,9.77213256334857
6.78753054166737,-0.003143463134766,0.101339263916016,9.79233673095703,9.79286159302896
6.79756754166738,0.0047900390625,0.094902648925781,9.78066101074219,9.78112259734534
6.80760454166739,0.005837860107422,0.095651092529297,9.78455291748047,9.7850221771383
6.8176415416674,-0.002095642089844,0.105081481933594,9.79592926025391,9.79649307566028
6.82767854166741,0.005239105224609,0.103285217285156,9.78185852050781,9.78240519502052
6.83771554166742,0.010627899169922,0.094303894042969,9.79982116699219,9.80028066341473
6.84775254166743,0.009430389404297,0.093854827880859,9.77691879272461,9.77737381613757
6.85778854165983,0.007783813476563,0.097297668457031,9.79652801513672,9.79701426840841
6.86782554165984,0.008083190917969,0.088466033935547,9.78425354003906,9.78465681119694
6.87786254165985,0.008382568359375,0.091759185791016,9.78485229492188,9.78528611993882
6.88789954165986,0.002544708251953,0.099093933105469,9.78769638061524,9.78819832871336
6.89793654165987,0.005837860107422,0.094004516601563,9.79128890991211,9.79174190055682
6.90797354165989,0.001945953369141,0.09340576171875,9.79592926025391,9.79637476288833
6.9180105416599,-0.002095642089844,0.090561676025391,9.77796661376953,9.77838621188956
6.92804754165991,0.005837860107422,0.088166656494141,9.79308517456055,9.79348378648403
6.93808454165992,-0.00239501953125,0.098495178222656,9.78754669189453,9.78804256643111
6.94812154165993,-0.000449066162109,0.101638641357422,9.77527221679688,9.77580060800947
6.95815854165994,-0.002245330810547,0.092956695556641,9.78904357910156,9.78948518474331
6.96819554165995,0.010178833007813,0.09580078125,9.78859451293945,9.789068593951
6.9782315416669,0.000149688720703,0.094902648925781,9.79488143920898,9.79534118565252
6.98826854166691,-0.004939727783203,0.098495178222656,9.78215789794922,9.78265499961304
6.99830554166692,0.001796264648438,0.102237396240234,9.78290634155274,9.78344071374429
7.00834254166693,0.003293151855469,0.087867279052734,9.77856536865234,9.77896068979645
7.01837954166695,0.00718505859375,0.091609497070313,9.77587097167969,9.77630283798277
7.02841654166696,0.011675720214844,0.098944244384766,9.79009140014649,9.79059834275524
7.03845354166697,0.003592529296875,0.091609497070313,9.77691879272461,9.77734863272001
7.04849054166698,-0.003442840576172,0.093854827880859,9.7857504272461,9.78620110186864
7.05852754166699,0.003143463134766,0.089064788818359,9.78006225585938,9.780468298934
7.068564541667,0.001796264648438,0.090711364746094,9.78769638061524,9.78811688821549
7.07860154166701,0.008382568359375,0.09819580078125,9.77796661376953,9.7784632628412
7.08863854166702,0.006286926269531,0.094004516601563,9.78500198364258,9.78545554353361
7.09867454167397,0.006735992431641,0.105530548095703,9.78769638061524,9.78826759489564
7.10871154167398,0.003143463134766,0.09819580078125,9.78155914306641,9.78205252316494
7.11874854167399,0.006735992431641,0.080532531738281,9.79143859863281,9.79177209156028
7.12878554167401,-0.000898132324219,0.091160430908203,9.78769638061524,9.78812093662076
7.13882254167402,0.002095642089844,0.098046112060547,9.78335540771484,9.783846915476
7.14885954167403,0.008831634521484,0.1005908203125,9.78874420166016,9.78926501615084
7.15889654167404,-0.000898132324219,0.090411987304688,9.78260696411133,9.78302479544898
7.16893354167405,0.001945953369141,0.095651092529297,9.79338455200195,9.79385184192752
7.17897054167406,-0.0047900390625,0.094004516601563,9.77901443481445,9.77946742465688
7.18900754167407,0.002544708251953,0.095052337646484,9.78994171142578,9.79040347154021
7.19904454167408,0.008232879638672,0.095651092529297,9.78784606933594,9.78831689254205
7.20908054166648,0.002844085693359,0.096100158691406,9.77826599121094,9.7787386264383
7.21911754166649,-0.003891906738281,0.097147979736328,9.79203735351563,9.79252002344393
7.2291545416665,-0.003293151855469,0.095950469970703,9.78979202270508,9.79026277407081
7.23919154166651,0.009280700683594,0.094603271484375,9.78455291748047,9.78501465023718
7.24922854166653,0.007634124755859,0.101339263916016,9.77602066040039,9.77654887364898
7.25926570832962,0.000449066162109,0.097147979736328,9.79982116699219,9.80030269107314
7.26930270832963,0.003592529296875,0.095950469970703,9.79637832641602,9.79684886650947
7.27933970832964,0.003891906738281,0.092657318115234,9.77916412353516,9.77960385090191
7.28937670832966,0.004939727783203,0.091759185791016,9.7909895324707,9.79142074338747
7.29941370832967,-0.001347198486328,0.101339263916016,9.77871505737305,9.77924023810895
7.30945070832968,-0.000299377441406,0.095052337646484,9.78784606933594,9.78830760211048
7.31948770832969,0.001197509765625,0.098644866943359,9.7814094543457,9.78190692847604
7.32952370833664,-0.000748443603516,0.092507629394531,9.78799575805664,9.78843292776729
7.33956070833665,-0.002245330810547,0.092657318115234,9.7861994934082,9.78663838837901
7.34959770833666,-0.002245330810547,0.102237396240234,9.78155914306641,9.78209368162085
7.35963470833667,0.01197509765625,0.103584594726563,9.80311431884766,9.80366888055816
7.36967170833668,0.007634124755859,0.098794555664063,9.78889389038086,9.78939539712363
7.37970870833669,0.000748443603516,0.087867279052734,9.79353424072266,9.79392843261084
7.3897457083367,0.002544708251953,0.094902648925781,9.78739700317383,9.78785743081954
7.39978270833672,0.007933502197266,0.092058563232422,9.78545104980469,9.78588728566016
7.40981970833673,0.0047900390625,0.097896423339844,9.79428268432617,9.79477309357743
7.41985670833674,0.000598754882813,0.09340576171875,9.78769638061524,9.78814208284383
7.42989370833675,0.000449066162109,0.094303894042969,9.79248641967773,9.79294050352931
7.43993070833676,0.004340972900391,0.090861053466797,9.79248641967773,9.79290890668629
7.44996670832916,-0.001646575927734,0.084574127197266,9.79772552490234,9.79809067908265
7.46000370832917,-0.0047900390625,0.09580078125,9.78230758666992,9.78277784958762
7.47004070832918,-0.002245330810547,0.099842376708984,9.78470260620117,9.78521224263927
7.48007770832919,0.001646575927734,0.096100158691406,9.78769638061524,9.78816828578368
7.4901147083292,0.005538482666016,0.094004516601563,9.78500198364258,9.78545509129856
7.50015170832921,0.002245330810547,0.085621948242188,9.77931381225586,9.77968889066056
7.51018870832922,0.0047900390625,0.096549224853516,9.78545104980469,9.7859285172853
7.52022570832924,0.005837860107422,0.099992065429688,9.77961318969727,9.78012610521256
7.53026270832925,0.000748443603516,0.085023193359375,9.78844482421875,9.78881410490319
7.54029970832926,-0.008083190917969,0.100291442871094,9.77886474609375,9.77938236464266
7.55033670832927,0.010328521728516,0.091908874511719,9.79413299560547,9.79456967177134
7.56037270833622,0.005089416503906,0.087567901611328,9.78754669189453,9.78793973651087
7.57040970833623,0.002694396972656,0.0910107421875,9.79787521362305,9.79829826636735
7.58044670833624,-0.004340972900391,0.094752960205078,9.78200820922852,9.78246807165387
7.59048370833625,0.008981323242188,0.096698913574219,9.77676910400391,9.77725142650321
7.60052070833626,0.004041595458984,0.094902648925781,9.78664855957031,9.78710952609639
7.61055770833627,0.00239501953125,0.091759185791016,9.77961318969727,9.78004394797878
7.62059470833628,0.008831634521484,0.089364166259766,9.78889389038086,9.78930577462546
7.6306317083363,-0.000449066162109,0.089064788818359,9.77811630249023,9.77852193142159
7.64066870833631,0.000299377441406,0.092956695556641,9.79188766479492,9.79232888933162
7.65070570833632,0.001496887207031,0.095651092529297,9.78335540771484,9.78382309763605
7.66074270833633,0.004340972900391,0.09340576171875,9.77871505737305,9.77916211409047
7.67077970833634,-0.004041595458984,0.089663543701172,9.79443237304688,9.79484361262351
7.68081570832874,-0.000598754882813,0.095052337646484,9.77841567993164,9.77887767153943
7.69085270832875,-0.000449066162109,0.093106384277344,9.78485229492188,9.7852952655447
7.70088970832876,-0.008083190917969,0.099542999267578,9.78350509643555,9.78401482616717
7.71092670832877,0.001047821044922,0.095950469970703,9.78455291748047,9.78502342284331
7.72096370832878,-0.002694396972656,0.096100158691406,9.77991256713867,9.78038508041235
7.73100070832879,0.003592529296875,0.089364166259766,9.7718293762207,9.77223864927827
7.7410377083288,0.007933502197266,0.092208251953125,9.79039077758789,9.79082820194816
7.75107470832882,0.005538482666016,0.085771636962891,9.78664855957031,9.78702597713101
7.76111170832883,0.003592529296875,0.098944244384766,9.78275665283203,9.7832576679904
7.77114870832884,0.004640350341797,0.100441131591797,9.78185852050781,9.7823752774568
7.78118570832885,0.007933502197266,0.093106384277344,9.77676910400391,9.77721564926619
7.79122270832886,0.0047900390625,0.099243621826172,9.7909895324707,9.79149366878712
7.80125870833581,-0.001646575927734,0.093256072998047,9.76958404541016,9.77002926437255
7.81129570833582,0.000299377441406,0.088915100097656,9.79009140014649,9.79049516663352
7.82133270833583,0.001047821044922,0.089962921142578,9.7764697265625,9.77688369264473
7.83136970833584,0.00718505859375,0.093256072998047,9.78919326782227,9.78964009323095
7.84140670833585,0.000748443603516,0.098794555664063,9.78799575805664,9.78849436247125
7.85144370833586,-0.00239501953125,0.089663543701172,9.78365478515625,9.78406593611768
7.86148070833588,0.00239501953125,0.097896423339844,9.78754669189453,9.78803655958829
7.87151770833589,0.003442840576172,0.095501403808594,9.78036163330078,9.78082849504185
7.8815547083359,0.008232879638672,0.096100158691406,9.78859451293945,9.78906969837053
7.89159170833591,0.000299377441406,0.092507629394531,9.77796661376953,9.77840420779969
7.90162870833592,0.004490661621094,0.091908874511719,9.79323486328125,9.79366716274569
7.91166470832832,0.00239501953125,0.088016967773438,9.78859451293945,9.78899051289166
7.92170170832833,0.009879455566406,0.092208251953125,9.77811630249023,9.7785560483333
7.93173870832834,-0.004340972900391,0.095351715087891,9.78754669189453,9.78801210867822
7.94177570832835,0.0047900390625,0.097447357177734,9.78739700317383,9.78788327625698
7.95181270832836,0.001646575927734,0.094752960205078,9.78485229492188,9.78531119934966
7.96184970832837,-0.008382568359375,0.095052337646484,9.77542190551758,9.77588761418713
7.97188670832838,0.003143463134766,0.086669769287109,9.78664855957031,9.78703282710385
7.9819237083284,0.006137237548828,0.094303894042969,9.78709762573242,9.78755387345243
7.99196070832841,-0.00239501953125,0.093106384277344,9.78485229492188,9.78529554833934
8.00199770832842,0.011825408935547,0.087118835449219,9.78470260620117,9.7850975786441
8.01203470832843,0.001945953369141,0.098944244384766,9.78380447387695,9.78430496935199
8.02207070833538,0.008232879638672,0.093256072998047,9.79353424072266,9.79398169283899
8.03210770833539,0.000299377441406,0.089813232421875,9.79188766479492,9.79229955354246
8.0421447083354,0.005239105224609,0.089663543701172,9.78500198364258,9.78541418741086
8.05218170833541,0.000748443603516,0.095202026367188,9.78844482421875,9.78890780745059
8.06221870833542,-0.003891906738281,0.091310119628906,9.78754669189453,9.78797338221249
8.07225570833543,0.001347198486328,0.107027435302734,9.79667770385742,9.79726240947482
8.08229270833544,0.007634124755859,0.103135528564453,9.78470260620117,9.785249118388
8.09232970833546,0.002095642089844,0.095950469970703,9.78784606933594,9.7883165846543
8.10236670833547,0.005239105224609,0.095052337646484,9.79952178955078,9.79998416830335
8.11240370833548,0.005688171386719,0.090711364746094,9.77811630249023,9.77853871148512
8.12244070833549,-0.003442840576172,0.091609497070313,9.78904357910156,9.78947283292897
8.1324777083355,0.004939727783203,0.087567901611328,9.77557159423828,9.77596504353312
8.1425137083279,0.004041595458984,0.089214477539063,9.78769638061524,9.78810379984831
8.15255070832791,-0.000898132324219,0.095052337646484,9.78230758666992,9.78276941738655
8.16258770832792,0.000149688720703,0.097896423339844,9.78365478515625,9.78414455571974
8.17262470832793,-0.000299377441406,0.096249847412109,9.78874420166016,9.78921739304471
8.18266170832794,-0.001945953369141,0.091160430908203,9.77886474609375,9.77928983788154
8.19269870832795,0.000149688720703,0.09819580078125,9.78530136108398,9.78579404876936
8.20273570832796,-0.001646575927734,0.099992065429688,9.78530136108398,9.78581237565861
8.21277270832798,0.003592529296875,0.096249847412109,9.78934295654297,9.78981677357707
8.22280970832799,0.002095642089844,0.095950469970703,9.79787521362305,9.79834524734316
8.232846708328,0.012274475097656,0.094603271484375,9.79652801513672,9.79699247693255
8.24288370832801,0.008681945800781,0.091160430908203,9.78769638061524,9.78812474580575
8.25291970833496,0.003143463134766,0.090861053466797,9.77452377319336,9.77494657812102
8.26295654167188,0.008232879638672,0.093854827880859,9.78874420166016,9.78919759503091
8.27299354167189,0.004191284179688,0.100291442871094,9.77946350097656,9.77997864554463
8.28303054167191,0.004640350341797,0.092956695556641,9.78919326782227,9.78963570899739
8.29306754167192,0.010478210449219,0.089064788818359,9.78694793701172,9.78735879853597
8.30310454167193,0.006885681152344,0.095651092529297,9.77736785888672,9.77783814511664
8.31314154167194,-0.002245330810547,0.090262298583984,9.78515167236328,9.78556822955162
8.32317854167195,-0.000598754882813,0.096249847412109,9.77826599121094,9.77873970338237
8.33321554167196,0.002544708251953,0.097597045898438,9.79712677001953,9.79761320969253
8.34325254167197,0.000748443603516,0.097447357177734,9.78694793701172,9.78743308888325
8.35328954167198,0.002245330810547,0.092956695556641,9.7859001159668,9.78634186345635
8.36332854167267,0.002993774414063,0.094453582763672,9.78500198364258,9.78545830617408
8.37336554167268,-0.001646575927734,0.098944244384766,9.7766194152832,9.77712022356285
8.38340254167269,-0.004490661621094,0.099542999267578,9.79113922119141,9.79164624685235
8.39343954167271,0.006286926269531,0.090861053466797,9.77946350097656,9.77988760791308
8.40347654167272,0.001796264648438,0.090711364746094,9.77886474609375,9.77928563345278
8.41351354167273,0.005239105224609,0.094303894042969,9.78739700317383,9.78785271499277
8.42354954166513,-0.005239105224609,0.096698913574219,9.78365478515625,9.78413404871483
8.43358654166514,0.001347198486328,0.091609497070313,9.79278579711914,9.79321437441025
8.44362354166515,0.009580078125,0.088765411376953,9.78964233398438,9.79004944336303
8.45366054166516,0.002694396972656,0.094603271484375,9.78829513549805,9.78875266304984
8.46369754166517,0.003143463134766,0.093705139160156,9.78545104980469,9.78590020297516
8.47373454166518,0.003742218017578,0.090711364746094,9.78994171142578,9.79036267300676
8.48377154166519,0.003293151855469,0.088915100097656,9.79652801513672,9.79693206525559
8.4938085416652,0.001496887207031,0.092956695556641,9.77542190551758,9.77586398323918
8.50384554166521,0.000299377441406,0.099542999267578,9.77976287841797,9.78026946747441
8.51388254166523,0.005688171386719,0.089813232421875,9.77961318969727,9.78002724495758
8.52391954166524,0.005688171386719,0.088016967773438,9.79158828735352,9.79198552546665
8.53395654166525,0.005239105224609,0.092058563232422,9.7764697265625,9.77690454805001
8.5439925416722,0.004939727783203,0.094603271484375,9.781259765625,9.78171849842964
8.55402954167221,-0.004340972900391,0.099842376708984,9.79503112792969,9.79554093153329
8.56406654167222,0.000898132324219,0.089214477539063,9.77347595214844,9.77388316979838
8.57410354167223,0.011675720214844,0.093555450439453,9.78814544677734,9.78859950309632
8.58414054167224,-0.002544708251953,0.088316345214844,9.7859001159668,9.78629895987503
8.59417754167225,0.003742218017578,0.095950469970703,9.78051132202149,9.78098268156496
8.60421454167226,0.001496887207031,0.098944244384766,9.79607894897461,9.79657873845312
8.61425154167227,-0.004490661621094,0.099692687988281,9.78096038818359,9.78146946594921
8.62428854167229,-0.004041595458984,0.089064788818359,9.78485229492188,9.78525846896948
8.6343255416723,-0.002694396972656,0.094303894042969,9.77572128295899,9.77617650650314
8.64436254167231,0.006436614990234,0.099692687988281,9.79443237304688,9.79494183608252
8.65439854166471,0.0047900390625,0.099243621826172,9.78739700317383,9.78790132452731
8.66443554166472,-0.000299377441406,0.094902648925781,9.77676910400391,9.77722970556616
8.67447254166473,0.001796264648438,0.096399536132813,9.78200820922852,9.78248336070895
8.68450954166474,0.005688171386719,0.097297668457031,9.78365478515625,9.78414023543672
8.69454654166475,0.007334747314453,0.094154205322266,9.78754669189453,9.78800230174235
8.70458354166476,-0.002245330810547,0.096249847412109,9.78664855957031,9.7871221052553
8.71462054166477,0.006286926269531,0.086819458007813,9.77901443481445,9.77940184571838
8.72465754166478,0.007634124755859,0.099393310546875,9.77572128295899,9.77622953454651
8.73469454166479,0.005837860107422,0.093705139160156,9.78081069946289,9.78126130273818
8.74473154166481,0.005987548828125,0.093555450439453,9.79009140014649,9.79054023515914
8.75476854166482,0.007035369873047,0.091759185791016,9.77916412353516,9.77959713892364
8.76480454167177,0.004490661621094,0.092807006835938,9.79263610839844,9.79307690453152
8.77484154167178,-0.005089416503906,0.097447357177734,9.78066101074219,9.78114776990071
8.78487854167179,0.00239501953125,0.096249847412109,9.77946350097656,9.7799374300748
8.7949155416718,0.004939727783203,0.091459808349609,9.79054046630859,9.7909688958693
8.80495254167181,0.005837860107422,0.090112609863281,9.78305603027344,9.78347278089618
8.81498954167182,0.007783813476563,0.088915100097656,9.79338455200195,9.7937912713192
8.82502654167183,0.005089416503906,0.09819580078125,9.78185852050781,9.78235270436937
8.83506354167184,0.011226654052734,0.10298583984375,9.78515167236328,9.78570004507207
8.84510054167185,0.009879455566406,0.091609497070313,9.781259765625,9.78169374424645
8.85513754167187,0.005388793945313,0.100141754150391,9.79188766479492,9.79240120961082
8.86517454167188,0.005987548828125,0.089214477539063,9.78634918212891,9.78675765451963
8.87521054166427,-0.002245330810547,0.097896423339844,9.78350509643555,9.78399513098783
8.88524754166428,-0.001796264648438,0.092507629394531,9.79413299560547,9.79457002750354
8.8952845416643,0.001047821044922,0.089962921142578,9.78530136108398,9.7857149535607
8.90532154166431,0.002844085693359,0.090861053466797,9.78694793701172,9.78737011365354
8.91535854166432,-0.009580078125,0.093256072998047,9.78245727539063,9.78290646065324
8.92539554166433,0.008831634521484,0.090561676025391,9.77736785888672,9.77779124664277
8.93543254166434,0.010777587890625,0.096698913574219,9.79039077758789,9.79087424156624
8.94546954166435,-0.003592529296875,0.094603271484375,9.78754669189453,9.78800454287072
8.95550654166436,-0.000598754882813,0.093705139160156,9.79113922119141,9.79158762716063
8.96554354166437,0.002544708251953,0.092058563232422,9.77781692504883,9.77825061421397
8.97558054166439,0.003742218017578,0.087867279052734,9.7859001159668,9.78629530223786
8.9856175416644,-0.002844085693359,0.101938018798828,9.79503112792969,9.79556196680985
8.99565354167135,0.001796264648438,0.100740509033203,9.78155914306641,9.78207805867613
9.00569054167136,0.000149688720703,0.092657318115234,9.78964233398438,9.79008081827449
9.01572754167137,-0.00239501953125,0.094004516601563,9.77886474609375,9.77931686303574
9.02576454167138,0.001347198486328,0.09340576171875,9.7861994934082,9.78664533821723
9.03580154167139,-0.003442840576172,0.088016967773438,9.78275665283203,9.78315320171859
9.0458385416714,0.002694396972656,0.096698913574219,9.78335540771484,9.78383365421371
9.05587554167141,0.009280700683594,0.092657318115234,9.78859451293945,9.78903744240229
9.06591254167142,0.007484436035156,0.087717590332031,9.77961318969727,9.78000943417424
9.07594954167143,-0.000598754882813,0.097147979736328,9.78350509643555,9.78398743153601
9.08598654167145,-0.000149688720703,0.103285217285156,9.78874420166016,9.78928909084065
9.09602354167146,0.004640350341797,0.099243621826172,9.78515167236328,9.78565603730677
9.10605954166385,0.007484436035156,0.091908874511719,9.79443237304688,9.7948664497371
9.11609654166386,0.001347198486328,0.092807006835938,9.78560073852539,9.78604091393911
9.12613354166388,0,0.094752960205078,9.79173797607422,9.79219641937199
9.13617054166389,-0.001945953369141,0.104632415771484,9.77452377319336,9.77508397518338
9.1462075416639,0.003143463134766,0.101039886474609,9.79682739257813,9.79734892202928
9.15624454166391,0.002245330810547,0.094004516601563,9.78949264526367,9.78994423591491
9.16628154166392,0.012274475097656,0.088016967773438,9.79353424072266,9.79393743974108
9.17631854166393,0.002993774414063,0.092058563232422,9.80131805419922,9.80175083040378
9.18635554166394,-0.006436614990234,0.096848602294922,9.78500198364258,9.78548337598446
9.19639254166395,-0.001796264648438,0.095202026367188,9.79188766479492,9.79235062139597
9.20642954166397,-0.000598754882813,0.102836151123047,9.7857504272461,9.78629077111611
9.21646554167091,0.005239105224609,0.094902648925781,9.79158828735352,9.7920495888264
9.22650254167093,-0.001347198486328,0.09580078125,9.78155914306641,9.78202836194712
9.23653954167094,0.000748443603516,0.099692687988281,9.78739700317383,9.78790474462958
9.24657654167095,0.003742218017578,0.092058563232422,9.79278579711914,9.79321920777425
9.25661354167096,-0.003742218017578,0.09819580078125,9.7859001159668,9.78639348785679
9.26665054167097,0.003891906738281,0.101938018798828,9.78859451293945,9.78912606136846
9.27668754167098,0.010478210449219,0.091908874511719,9.78425354003906,9.7846908162637
9.28672454167099,-0.001047821044922,0.092357940673828,9.79383361816406,9.79426914207564
9.296761541671,0.002095642089844,0.09819580078125,9.7906901550293,9.79118279467779
9.30679854167101,0.001197509765625,0.096399536132813,9.78320571899414,9.78368072070813
9.31683554167103,-0.002095642089844,0.088016967773438,9.7906901550293,9.79108600156895
9.32687254167104,-0.00239501953125,0.097297668457031,9.7766194152832,9.77710385358048
9.33690854166343,0.001945953369141,0.092956695556641,9.78769638061524,9.78813798294098
9.34694554166344,-0.005239105224609,0.091310119628906,9.78979202270508,9.79021924340769
9.35698254166346,0.008083190917969,0.090262298583984,9.7860498046875,9.78646940425123
9.36701954166347,0.000748443603516,0.091160430908203,9.78530136108398,9.78572600840445
9.37705654166348,-0.001047821044922,0.102387084960938,9.77781692504883,9.77835303273854
9.38709354166349,0.003891906738281,0.096100158691406,9.79188766479492,9.79236000295136
9.3971305416635,-0.000149688720703,0.097597045898438,9.7860498046875,9.78653646524648
9.40716754166351,-0.000898132324219,0.096848602294922,9.79128890991211,9.7917679188069
9.41720454166352,-0.008981323242188,0.092956695556641,9.79248641967773,9.79293173115124
9.42724154166353,0.004041595458984,0.09340576171875,9.781259765625,9.78170657776293
9.43727854166355,-0.000748443603516,0.096549224853516,9.79083984375,9.79131590538014
9.44731454167049,0,0.097147979736328,9.7716796875,9.77216258793656
9.45735154167051,0.003592529296875,0.089962921142578,9.8002702331543,9.80068379636326
9.46738854167052,0.005388793945313,0.094004516601563,9.77587097167969,9.77632441887907
9.47742554167053,0.007334747314453,0.09819580078125,9.79113922119141,9.79163436115554
9.48746254167054,0.001047821044922,0.105979614257813,9.781259765625,9.78183394763996
9.49749954167055,0.005688171386719,0.102387084960938,9.78530136108398,9.78583865581753
9.50753654167056,0.003442840576172,0.094902648925781,9.78949264526367,9.7899532489995
9.51757354167057,-0.003742218017578,0.094303894042969,9.78724731445313,9.78770234645993
9.52761054167058,0.006436614990234,0.093106384277344,9.78305603027344,9.78350118926119
9.53764754167059,-0.000299377441406,0.097896423339844,9.78649887084961,9.78698850252059
9.54768454167061,0.005388793945313,0.094603271484375,9.77751754760742,9.77797669315318
9.557720541663,0.0047900390625,0.093705139160156,9.78694793701172,9.78739768883217
9.56775754166301,0.007634124755859,0.095950469970703,9.77961318969727,9.78008685608922
9.57779454166302,0.007484436035156,0.092357940673828,9.79113922119141,9.79157766934118
9.58783154166304,-0.003143463134766,0.096549224853516,9.77811630249023,9.77859346016622
9.59786854166305,0.004490661621094,0.098495178222656,9.78859451293945,9.78909107143882
9.60790554166306,0.004340972900391,0.092507629394531,9.78784606933594,9.78828417969957
9.61794254166307,0.003742218017578,0.090711364746094,9.7811100769043,9.78153141856676
9.62797954166308,0.005987548828125,0.101938018798828,9.78395416259766,9.78448702110794
9.63801654166309,0.005688171386719,0.096549224853516,9.77497283935547,9.77545129997847
9.6480535416631,0.008232879638672,0.096848602294922,9.80161743164063,9.80209935209366
9.65809054166311,0.007334747314453,0.093555450439453,9.78410385131836,9.78455387813915
9.66812654167006,0.009280700683594,0.099393310546875,9.78829513549805,9.78880415685192
9.67816354167007,0.002095642089844,0.098345489501953,9.78889389038086,9.7893881230727
9.68820054167009,0.005538482666016,0.097746734619141,9.78709762573242,9.7875872938399
9.6982375416701,0.003742218017578,0.090262298583984,9.79173797607422,9.79215471072815
9.70827454167011,0.000449066162109,0.096698913574219,9.78979202270508,9.7902695943149
9.71831154167012,0.004490661621094,0.094154205322266,9.78814544677734,9.78859931081509
9.72834854167013,-0.002993774414063,0.092657318115234,9.77362564086914,9.77406530104748
9.73838554167014,-0.004191284179688,0.101039886474609,9.79188766479492,9.79240984975021
9.74842254167015,0.005837860107422,0.096998291015625,9.78260696411133,9.78308958168891
9.75845954167016,0.005538482666016,0.091160430908203,9.78081069946289,9.7812370811509
9.76849654167017,-0.002095642089844,0.087418212890625,9.78455291748047,9.78494364473482
9.77853354167019,0.006735992431641,0.090561676025391,9.77467346191406,9.77509529763294
9.78856954166258,0.001047821044922,0.089064788818359,9.78769638061524,9.78810165832194
9.79860654166259,0.004939727783203,0.094154205322266,9.79338455200195,9.79383838945084
9.8086435416626,0.005688171386719,0.094752960205078,9.79218704223633,9.79264711653097
9.81868054166262,0.008831634521484,0.093106384277344,9.78500198364258,9.78544892258146
9.82871754166263,-0.001646575927734,0.094303894042969,9.77691879272461,9.77737372790749
9.83875454166264,-0.000898132324219,0.086520080566406,9.78560073852539,9.78598325896849
9.84879154166265,0.000149688720703,0.097447357177734,9.78814544677734,9.78863051182829
9.85882854166266,0.003742218017578,0.101039886474609,9.78694793701172,9.78747020351186
9.86886554166267,-0.001945953369141,0.092357940673828,9.77931381225586,9.77975012024941
9.87890254166268,0.000598754882813,0.084873504638672,9.78634918212891,9.78671723229256
9.88893854166963,0.005987548828125,0.098495178222656,9.78724731445313,9.78774474254126
9.89897554166964,-0.000598754882813,0.099842376708984,9.77871505737305,9.77922476641112
9.90901254166965,-0.006436614990234,0.090561676025391,9.78949264526367,9.78991364103119
9.91904954166967,-0.000449066162109,0.094154205322266,9.78036163330078,9.78081483794588
9.92908654166968,0.003442840576172,0.094752960205078,9.78769638061524,9.78815561869178
9.93912354166969,0.006735992431641,0.093106384277344,9.78230758666992,9.78275298127307
9.9491605416697,0.000748443603516,0.093705139160156,9.77617034912109,9.77661945195308
9.95919754166971,-0.001197509765625,0.100291442871094,9.79128890991211,9.79180260855532
9.96923454166972,-0.001646575927734,0.100141754150391,9.7857504272461,9.78626294897515
9.97927154166973,-0.001945953369141,0.089214477539063,9.78200820922852,9.78241522402066
9.98930854166974,0.001646575927734,0.093106384277344,9.78949264526367,9.78993553409199
9.99934554166975,0.011526031494141,0.093555450439453,9.78290634155274,9.78336046352692
10.0093815416622,0.001945953369141,0.097597045898438,9.7956298828125,9.79611625957715
10.0194185416622,0.006436614990234,0.098794555664063,9.77946350097656,9.77996462985292
10.0294555416622,0.007035369873047,0.092507629394531,9.79278579711914,9.79322525147787
10.0394925416622,0.009580078125,0.09340576171875,9.781259765625,9.78171043411394
10.0495295416622,0.009729766845703,0.100441131591797,9.79113922119141,9.79165922293208
10.0595665416622,-0.004191284179688,0.089064788818359,9.78245727539063,9.78286361186301
10.0696035416622,0.008532257080078,0.093854827880859,9.78021194458008,9.7806659900558
10.0796405416622,-0.000598754882813,0.09340576171875,9.78410385131836,9.78454971719253
10.0896775416622,0.007334747314453,0.097896423339844,9.78320571899414,9.78369826028893
10.0997145416623,0.010178833007813,0.090561676025391,9.79503112792969,9.79545505951191
10.1097515416623,0.007933502197266,0.096249847412109,9.78724731445313,9.78772378890281
10.1197875416692,0.001047821044922,0.096399536132813,9.78215789794922,9.78263293336236
10.1298245416692,0.004041595458984,0.089214477539063,9.78096038818359,9.78136808798815
10.1398615416692,0.001496887207031,0.096249847412109,9.781259765625,9.78173342902129
10.1498985416692,0.0047900390625,0.101339263916016,9.80086898803711,9.80139405959952
10.1599355416693,0.007035369873047,0.092208251953125,9.78320571899414,9.78364277753011
10.1699725416693,0.003293151855469,0.089364166259766,9.78664855957031,9.78705710760902
10.1800095416693,0.002844085693359,0.092807006835938,9.79323486328125,9.79367501588289
10.1900465416693,0.006286926269531,0.089513854980469,9.79398330688477,9.79439438001211
10.2000835416693,0.001945953369141,0.086520080566406,9.78395416259766,9.7843368997029
10.2101205416693,-0.004939727783203,0.090262298583984,9.78275665283203,9.78317430142107
10.2201575416693,0.003742218017578,0.098944244384766,9.79637832641602,9.79687870099278
10.2301935416617,0.007334747314453,0.094752960205078,9.78694793701172,9.78740935302922
10.2402305416617,0.002993774414063,0.095202026367188,9.78784606933594,9.78830951010054
10.2502677916636,-0.002993774414063,0.095351715087891,9.79143859863281,9.79190332586326
10.2603047916637,0.014669494628906,0.091160430908203,9.78066101074219,9.78109683140334
10.2703417916637,0.008382568359375,0.093854827880859,9.79727645874024,9.79772958420238
10.2803787916637,-0.000299377441406,0.099393310546875,9.77482315063477,9.77532847253706
10.2904157916637,0.003891906738281,0.090861053466797,9.78709762573242,9.7875201564846
10.3004527916637,-0.001347198486328,0.091759185791016,9.7766194152832,9.77705010493519
10.3104897916637,-0.004640350341797,0.089513854980469,9.79518081665039,9.79559092112164
10.3205267916637,0.000149688720703,0.09819580078125,9.78664855957031,9.78714117943731
10.3305637916637,0.004640350341797,0.099393310546875,9.77886474609375,9.77937095550772
10.3405997916707,0.000149688720703,0.099542999267578,9.78440322875977,9.78490957413887
10.3506367916707,-0.001796264648438,0.099393310546875,9.79473175048828,9.79523620546087
10.3606737916707,-0.000149688720703,0.089214477539063,9.78949264526367,9.78989915663491
10.3707107916707,0.002544708251953,0.094603271484375,9.77706848144531,9.77752649423089
10.3807477916707,0.000898132324219,0.097447357177734,9.78365478515625,9.78414011291608
10.3907847916707,0.004490661621094,0.089214477539063,9.78859451293945,9.78900209049895
10.4008217916708,0.004340972900391,0.091459808349609,9.77721817016602,9.77764689931139
10.4108587916708,0.001496887207031,0.099842376708984,9.79488143920898,9.79539040309363
10.4208957916708,-0.006586303710938,0.101339263916016,9.77287719726563,9.7734048181093
10.4309327916708,0.001347198486328,0.097447357177734,9.78320571899414,9.78369112055999
10.4409697916708,0.009430389404297,0.095950469970703,9.79293548583985,9.79341007283741
10.4510057916632,0.002544708251953,0.088765411376953,9.78215789794922,9.78256095888021
10.4610427916632,0.003592529296875,0.093256072998047,9.79054046630859,9.79098525296836
10.4710797916632,0.007334747314453,0.090711364746094,9.78350509643555,9.78392836861516
10.4811167916632,0.009280700683594,0.088466033935547,9.79383361816406,9.79423755638212
10.4911537916632,0.003442840576172,0.094154205322266,9.78245727539063,9.78291097845493
10.5011907916632,0.009280700683594,0.092507629394531,9.78395416259766,9.78439588573119
10.5112277916633,0.004939727783203,0.096848602294922,9.78754669189453,9.78802708918874
10.5212647916633,0.004640350341797,0.091908874511719,9.78185852050781,9.78229139257754
10.5313017916633,0.003592529296875,0.092208251953125,9.79009140014649,9.79052628264779
10.5413387916633,0.005538482666016,0.099842376708984,9.79083984375,9.79135046972274
10.5513757916633,0.008232879638672,0.098345489501953,9.79128890991211,9.79178625854243
10.5614117916703,0.005388793945313,0.092807006835938,9.78724731445313,9.78768880655121
10.5714487916703,0.001047821044922,0.091759185791016,9.7957795715332,9.79620938221378
10.5814857916703,0.003143463134766,0.092807006835938,9.78649887084961,9.78693941797021
10.5915227916703,-0.000748443603516,0.096848602294922,9.77811630249023,9.77859594404839
10.6015597916703,-0.001347198486328,0.096249847412109,9.7857504272461,9.78622385153833
10.6115967916703,0.001047821044922,0.091908874511719,9.7763200378418,9.77675211005424
10.6216337916703,0.001347198486328,0.093854827880859,9.79188766479492,9.79233754440804
10.6316707916703,0.007634124755859,0.095202026367188,9.78455291748047,9.78501903425133
10.6417077916703,0.008232879638672,0.099393310546875,9.78679824829102,9.7873064100007
10.6517447916704,0.003293151855469,0.094154205322266,9.79652801513672,9.79698101511826
10.6617817916704,0.002544708251953,0.095052337646484,9.77332626342774,9.77378880853472
10.6718177916628,0.006586303710938,0.101938018798828,9.78859451293945,9.78912750339996
10.6818547916628,-0.000748443603516,0.089214477539063,9.78066101074219,9.78106791665526
10.6918917916628,0.004490661621094,0.092807006835938,9.78470260620117,9.78514375971859
10.7019287916628,0.002245330810547,0.094603271484375,9.79338455200195,9.79384172854945
10.7119657916628,0.001047821044922,0.095950469970703,9.78530136108398,9.78577183046123
10.7220027916628,0.003742218017578,0.093256072998047,9.78245727539063,9.78290248567314
10.7320397916628,0.006137237548828,0.096998291015625,9.76883560180664,9.76931908319457
10.7420767916628,0.004191284179688,0.088765411376953,9.78979202270508,9.7901953357908
10.7521137916629,0.002694396972656,0.093705139160156,9.78724731445313,9.78769625127129
10.7621507916629,0.001197509765625,0.091310119628906,9.78754669189453,9.78797268171463
10.7721877916629,0.008083190917969,0.089962921142578,9.79218704223633,9.79260362392438
10.7822237916698,0.005089416503906,0.088466033935547,9.77302688598633,9.7734286028769
10.7922607916698,0.005538482666016,0.092956695556641,9.79039077758789,9.7908336315105
10.8022977916698,0.007634124755859,0.096100158691406,9.78425354003906,9.78472845081192
10.8123347916699,-0.00239501953125,0.098944244384766,9.78694793701172,9.78744837132709
10.8223717916699,0.002993774414063,0.100441131591797,9.78679824829102,9.78731410226282
10.8324087916699,0,0.097447357177734,9.78260696411133,9.78309230262602
10.8424457916699,-0.009131011962891,0.099692687988281,9.78305603027344,9.78356822937763
10.8524827916699,-0.00239501953125,0.094603271484375,9.78814544677734,9.78860290349763
10.8625197916699,0.007484436035156,0.094453582763672,9.79757583618164,9.79803397431393
10.8725567916699,-0.000598754882813,0.105530548095703,9.78694793701172,9.78751689535537
10.8825937916699,0.002095642089844,0.093106384277344,9.78021194458008,9.78065533956779
10.8926297916623,0.004640350341797,0.094902648925781,9.78170883178711,9.78217029679439
10.9026667916623,0.007783813476563,0.096698913574219,9.78470260620117,9.78518351179163
10.9127037916624,0.008831634521484,0.093555450439453,9.79503112792969,9.79548188795155
10.9227407916624,-0.010478210449219,0.100740509033203,9.78724731445313,9.78777137234643
10.9327777916624,0.001796264648438,0.092807006835938,9.79592926025391,9.79636904362954
10.9428147916624,-0.002844085693359,0.097896423339844,9.78844482421875,9.78893476713892
10.9528517916624,0.007783813476563,0.088765411376953,9.78275665283203,9.78316245467377
10.9628887916624,-0.000149688720703,0.089813232421875,9.78934295654297,9.78975494892197
10.9729257916624,0.002993774414063,0.091310119628906,9.77916412353516,9.77959086340881
10.9829627916624,0.007484436035156,0.095950469970703,9.78874420166016,9.78921731064367
10.9929997916624,0.00239501953125,0.1005908203125,9.78395416259766,9.78447153938636
11.0030357916694,0.003442840576172,0.092357940673828,9.7859001159668,9.78633654244711
11.0130727916694,-0.002544708251953,0.094752960205078,9.78215789794922,9.78261712117049
11.0231097916694,0.001047821044922,0.094303894042969,9.78470260620117,9.78515709706087
11.0331467916694,0.005239105224609,0.097597045898438,9.79458206176758,9.79506969838862
11.0431837916694,0.004640350341797,0.101938018798828,9.78335540771484,9.78388756712746
11.0532207916694,0.009879455566406,0.098794555664063,9.79428268432617,9.79478592253872
11.0632577916695,-0.000898132324219,0.098794555664063,9.77437408447266,9.77487339631983
11.0732947916695,0.001347198486328,0.090861053466797,9.78081069946289,9.78123282028951
11.0833317916695,0.005089416503906,0.091908874511719,9.7811100769043,9.78154320544019
11.0933687916695,0.002694396972656,0.097447357177734,9.77796661376953,9.7784525538138
11.1034057916695,0.002844085693359,0.099393310546875,9.79323486328125,9.79373964358826
11.1134417916619,0.000898132324219,0.096848602294922,9.78081069946289,9.78129022149614
11.1234787916619,-0.001047821044922,0.098495178222656,9.7857504272461,9.78624615582549
11.1335157916619,0.001197509765625,0.092507629394531,9.78081069946289,9.78124823497766
11.1435527916619,-0.002694396972656,0.093705139160156,9.78380447387695,9.78425356866505
11.1535897916619,0.000898132324219,0.090262298583984,9.78545104980469,9.78586737787259
11.163626791662,-0.000898132324219,0.097597045898438,9.78245727539063,9.78294415474466
11.173663791662,0.005538482666016,0.100890197753906,9.78260696411133,9.7831287695232
11.183700791662,0.006436614990234,0.094902648925781,9.78051132202149,9.78097386066317
11.193737791662,0.002694396972656,0.102237396240234,9.7954801940918,9.79601408623986
11.203774791662,0.002544708251953,0.095351715087891,9.78889389038086,9.78935861138236
11.213811791662,0.000748443603516,0.09580078125,9.77856536865234,9.77903466702429
11.223847791669,-0.003442840576172,0.099842376708984,9.7957795715332,9.79628897937405
11.233884791669,0.0047900390625,0.095052337646484,9.77841567993164,9.77887882637367
11.243921791669,0.003742218017578,0.094004516601563,9.79323486328125,9.79368673895201
11.253958666668,0.008382568359375,0.098495178222656,9.7764697265625,9.77696946307896
11.2639956666681,0.009430389404297,0.090861053466797,9.78649887084961,9.78692519703824
11.2740326666681,0.006586303710938,0.096399536132813,9.78096038818359,9.78143764306555
11.2840696666681,-0.000898132324219,0.092807006835938,9.77901443481445,9.7794548551271
11.2941066666681,-0.005987548828125,0.091160430908203,9.78814544677734,9.78857177335756
11.3041436666681,0.003592529296875,0.0910107421875,9.77916412353516,9.77958827438545
11.3141806666681,-0.000748443603516,0.092208251953125,9.78545104980469,9.78588550771057
11.3242176666681,-0.002844085693359,0.092657318115234,9.78694793701172,9.78738695409565
11.3342536666605,0.005837860107422,0.093106384277344,9.77886474609375,9.77930972010801
11.3442906666605,0,0.094303894042969,9.78754669189453,9.788000994608
11.3543276666605,0.002245330810547,0.086669769287109,9.78155914306641,9.78194336314235
11.3643646666606,-0.000598754882813,0.091160430908203,9.7956298828125,9.79605407211087
11.3744016666606,-0.001945953369141,0.099842376708984,9.77287719726563,9.77338738615
11.3844386666606,0.0047900390625,0.093106384277344,9.79443237304688,9.79487607136793
11.3944756666606,0.011675720214844,0.100890197753906,9.78964233398438,9.79016916001886
11.4045126666606,0.002694396972656,0.092956695556641,9.78814544677734,9.78858720624646
11.4145496666606,-0.001796264648438,0.102387084960938,9.78934295654297,9.78987854176705
11.4245866666606,-0.003891906738281,0.101788330078125,9.77557159423828,9.77610229105427
11.4346236666606,0.001347198486328,0.093106384277344,9.79697708129883,9.79741958605589
11.4446596666676,0.004041595458984,0.097597045898438,9.78694793701172,9.78743538623065
11.4546966666676,0.007484436035156,0.099542999267578,9.78949264526367,9.79000158718871
11.4647336666676,0.003592529296875,0.08861572265625,9.79592926025391,9.79633072759731
11.4747706666676,0.003891906738281,0.097896423339844,9.78170883178711,9.78219947284366
11.4848076666676,0.005688171386719,0.090711364746094,9.79338455200195,9.79380630247394
11.4948446666676,-0.001047821044922,0.092357940673828,9.77497283935547,9.77540920357156
11.5048816666676,-0.004191284179688,0.099542999267578,9.79263610839844,9.79314292385622
11.5149186666677,-0.001047821044922,0.095651092529297,9.78006225585938,9.7805300448348
11.5249556666677,0.008681945800781,0.093555450439453,9.78545104980469,9.78590211715882
11.5349926666677,0.001347198486328,0.099243621826172,9.79173797607422,9.79224099496693
11.5450296666677,0.000149688720703,0.098046112060547,9.78305603027344,9.78354732977596
11.5550656666601,0.009280700683594,0.095950469970703,9.79368392944336,9.79415833718906
11.5651026666601,0.008981323242188,0.089513854980469,9.78410385131836,9.78451744174353
11.5751396666601,0.001496887207031,0.089813232421875,9.78829513549805,9.78870728528564
11.5851766666601,0.003293151855469,0.091759185791016,9.79323486328125,9.79366528325394
11.5952136666601,0.002245330810547,0.096100158691406,9.77212875366211,9.77260152979547
11.6052506666601,0.000449066162109,0.093106384277344,9.77347595214844,9.77391943836645
11.6152876666602,0.000748443603516,0.097297668457031,9.77856536865234,9.77904944590536
11.6253246666602,0.004041595458984,0.09340576171875,9.79518081665039,9.79562699380147
11.6353616666602,0,0.091160430908203,9.78649887084961,9.78692343759284
11.6453986666602,0.006885681152344,0.095202026367188,9.77976287841797,9.78022866790503
11.6554356666602,0.001496887207031,0.096399536132813,9.78949264526367,9.78996738313818
11.6654716666671,-0.000598754882813,0.097297668457031,9.77617034912109,9.77665453464676
11.6755086666672,0.001047821044922,0.090262298583984,9.78904357910156,9.78945976926327
11.6855456666672,-0.000748443603516,0.094603271484375,9.78081069946289,9.78126823463456
11.6955826666672,0.004191284179688,0.096998291015625,9.79697708129883,9.79745814825547
11.7056196666672,0.004939727783203,0.094154205322266,9.78230758666992,9.78276193799636
11.7156566666672,-0.000149688720703,0.100291442871094,9.7857504272461,9.78626434449157
11.7256936666672,0.004939727783203,0.093256072998047,9.78889389038086,9.78933933895426
11.7357306666672,-0.001496887207031,0.090262298583984,9.7763200378418,9.7767368280794
11.7457676666672,0.008981323242188,0.092208251953125,9.7859001159668,9.78633864658149
11.7558046666672,0,0.098495178222656,9.77721817016602,9.77771427518506
11.7658416666673,0.008532257080078,0.090411987304688,9.77991256713867,9.78033419407211
11.7758776666597,0,0.091759185791016,9.7857504272461,9.78618062231247
11.7859146666597,-0.001496887207031,0.090561676025391,9.77736785888672,9.77778737270488
11.7959516666597,0.007035369873047,0.09340576171875,9.79113922119141,9.7915872758968
11.8059886666597,-0.006436614990234,0.096549224853516,9.77557159423828,9.77605048968707
11.8160256666597,0.016465759277344,0.097147979736328,9.79832427978516,9.79881970152644
11.8260626666597,-0.002245330810547,0.102686462402344,9.7909895324707,9.79152825538598
11.8360996666597,-0.006586303710938,0.098345489501953,9.7766194152832,9.77711626227256
11.8461366666597,-0.002544708251953,0.096249847412109,9.79338455200195,9.79385784520367
11.8561736666597,0.0047900390625,0.096399536132813,9.78889389038086,9.78936971475572
11.8662106666598,0.003592529296875,0.090711364746094,9.79173797607422,9.79215880437276
11.8762466666667,-0.004640350341797,0.094303894042969,9.77826599121094,9.77872182609544
11.8862836666667,0.005388793945313,0.090561676025391,9.78185852050781,9.78227921148727
11.8963206666667,0,0.093256072998047,9.78694793701172,9.78739222760225
11.9063576666667,0.009729766845703,0.086819458007813,9.77931381225586,9.77970403055378
11.9163946666667,-0.005089416503906,0.100441131591797,9.78949264526367,9.79000922240359
11.9264316666668,-0.000149688720703,0.110021209716797,9.78021194458008,9.78083076072279
11.9364686666668,0.004340972900391,0.095651092529297,9.80116836547852,9.80163605241516
11.9465056666668,0.001197509765625,0.100740509033203,9.78425354003906,9.78477222115859
11.9565426666668,0.00239501953125,0.094303894042969,9.79039077758789,9.79084524126637
11.9665796666668,0.001945953369141,0.098046112060547,9.77946350097656,9.77995517340225
11.9766166666668,0.000598754882813,0.097147979736328,9.77332626342774,9.77380910085114
11.9866536666668,0.004340972900391,0.094453582763672,9.79413299560547,9.79458939715956
11.9966896666738,-0.003143463134766,0.095052337646484,9.78949264526367,9.78995460050373
12.0067266666738,-0.003742218017578,0.090411987304688,9.79024108886719,9.7906592683939
12.0167636666738,0.005987548828125,0.096848602294922,9.78889389038086,9.78937480637263
12.0268006666738,-0.003742218017578,0.093555450439453,9.78545104980469,9.78589898142354
12.0368376666738,0.002095642089844,0.09340576171875,9.78829513549805,9.78874101647667
12.0468746666738,0.004041595458984,0.090861053466797,9.77976287841797,9.78018578676362
12.0569116666738,-0.0047900390625,0.090561676025391,9.7906901550293,9.7911101553106
12.0669486666739,0.003742218017578,0.087268524169922,9.77437408447266,9.77476437274665
12.0769856666739,0.006586303710938,0.098345489501953,9.79113922119141,9.79163533141705
12.0870226666739,-0.005538482666016,0.099243621826172,9.78919326782227,9.78969789145917
12.0970586666663,0.003742218017578,0.091609497070313,9.78560073852539,9.78603025327318
12.1070956666663,-0.003143463134766,0.1005908203125,9.78964233398438,9.79015962187699
12.1171326666663,0.000149688720703,0.101339263916016,9.78649887084961,9.78702354232166
12.1271696666663,0.004191284179688,0.090411987304688,9.79802490234375,9.79844293146925
12.1372066666663,0.002694396972656,0.096549224853516,9.77557159423828,9.77604874203649
12.1472436666663,-0.002245330810547,0.094004516601563,9.79383361816406,9.7942850086636
12.1572806666663,-0.001945953369141,0.087867279052734,9.78021194458008,9.78060683834953
12.1673176666663,-0.001796264648438,0.101039886474609,9.78051132202149,9.78103338126478
12.1773546666664,-0.000748443603516,0.090112609863281,9.80131805419922,9.80173231843207
12.1873916666664,0,0.090411987304688,9.78200820922852,9.78242602491133
12.1974286666664,0.003742218017578,0.089064788818359,9.80161743164063,9.80202279211002
12.2074646666733,0.001646575927734,0.101938018798828,9.78949264526367,9.79002350980632
12.2175016666733,0.005538482666016,0.094603271484375,9.7906901550293,9.79114876638862
12.2275386666734,-0.007933502197266,0.093106384277344,9.78634918212891,9.78679529027789
12.2375756666734,0.0047900390625,0.091459808349609,9.77602066040039,9.77644965176996
12.2476126666734,0.001197509765625,0.090411987304688,9.79203735351563,9.79245481450506
12.2576495416724,0.007334747314453,0.095052337646484,9.77197906494141,9.7724440950595
12.2676865416724,0.00718505859375,0.087118835449219,9.78799575805664,9.78838609150108
12.2777235416725,-0.002694396972656,0.090561676025391,9.78305603027344,9.78347555669298
12.2877605416725,-0.005538482666016,0.095202026367188,9.77676910400391,9.77723418015647
12.2977975416725,-0.002993774414063,0.097896423339844,9.78275665283203,9.78324692527575
12.3078345416725,0.000449066162109,0.096549224853516,9.77886474609375,9.77934137234586
12.3178705416649,-0.004340972900391,0.092956695556641,9.79847396850586,9.79891585343917
12.3279075416649,0.001646575927734,0.098495178222656,9.78515167236328,9.78564751370594
12.3379445416649,-0.001197509765625,0.084125061035156,9.78006225585938,9.78042413131501
12.3479815416649,0.001047821044922,0.089064788818359,9.78335540771484,9.78376086523988
12.3580185416649,0.005388793945313,0.095351715087891,9.78799575805664,9.78846167425736
12.3680555416649,-0.004041595458984,0.095501403808594,9.79054046630859,9.79100707154526
12.378092541665,0.003742218017578,0.100740509033203,9.7906901550293,9.79120913708535
12.388129541665,0.007334747314453,0.098794555664063,9.80071929931641,9.80121997236773
12.398166541665,0.00239501953125,0.099393310546875,9.79637832641602,9.79688282468324
12.408203541665,0.001347198486328,0.092208251953125,9.78395416259766,9.78438875109141
12.4182395416719,-0.000149688720703,0.094752960205078,9.78919326782227,9.78965183143155
12.4282765416719,0.007933502197266,0.100441131591797,9.78185852050781,9.78237739389581
12.438313541672,-0.002095642089844,0.100890197753906,9.79533050537109,9.79585029148425
12.448350541672,0.003592529296875,0.097896423339844,9.78470260620117,9.78519298265341
12.458387541672,0.006137237548828,0.100441131591797,9.79188766479492,9.7924047162361
12.468424541672,0.005837860107422,0.098495178222656,9.78500198364258,9.78549943542142
12.478461541672,0.005388793945313,0.095052337646484,9.77407470703125,9.77453837092168
12.488498541672,0.005089416503906,0.09340576171875,9.79353424072266,9.79398098133184
12.498535541672,0.00718505859375,0.101039886474609,9.77676910400391,9.77729383810935
12.508572541672,0.002245330810547,0.091310119628906,9.79308517456055,9.79351110764953
12.5186095416721,0.004340972900391,0.090861053466797,9.77886474609375,9.77928782158895
12.5286455416644,-0.000149688720703,0.095202026367188,9.79263610839844,9.79309886602499
12.5386825416645,0.00718505859375,0.087268524169922,9.79188766479492,9.79227917598047
12.5487195416645,0.005239105224609,0.095651092529297,9.78709762573242,9.78756642456861
12.5587565416645,-0.000449066162109,0.097147979736328,9.79368392944336,9.79416575525779
12.5687935416645,0.007484436035156,0.101189575195313,9.77706848144531,9.77759497206661
12.5788305416645,0.00239501953125,0.089663543701172,9.79143859863281,9.79184942275892
12.5888675416645,-0.000748443603516,0.093555450439453,9.7956298828125,9.79607666280353
12.5989045416645,-0.005688171386719,0.092956695556641,9.78784606933594,9.78828912423195
12.6089415416645,0.015567626953125,0.096549224853516,9.79682739257813,9.79731550292211
12.6189785416645,0.009131011962891,0.089962921142578,9.77946350097656,9.77988154680274
12.6290155416646,-0.000748443603516,0.095351715087891,9.78874420166016,9.78920862763039
12.6390515416715,-0.012424163818359,0.102686462402344,9.77826599121094,9.77881304986856
12.6490885416715,0.006885681152344,0.095501403808594,9.78964233398438,9.79011056924657
12.6591255416715,-0.001047821044922,0.096399536132813,9.78515167236328,9.78562656244604
12.6691625416715,0.005837860107422,0.092208251953125,9.78185852050781,9.78229485128976
12.6791995416716,0.002993774414063,0.095052337646484,9.79278579711914,9.79324755011511
12.6892365416716,0.007933502197266,0.091609497070313,9.77138031005859,9.77181295380808
12.6992735416716,0.001197509765625,0.091908874511719,9.79218704223633,9.79261843152202
12.7093105416716,-0.004041595458984,0.0910107421875,9.7859001159668,9.78632415002519
12.7193475416716,0.011226654052734,0.093705139160156,9.78425354003906,9.78470868378989
12.7293845416716,0,0.094902648925781,9.79278579711914,9.79324564079915
12.7394215416716,0.000149688720703,0.100141754150391,9.78215789794922,9.78267047046671
12.749457541664,-0.002245330810547,0.089513854980469,9.79143859863281,9.79184801774111
12.759494541664,-0.002245330810547,0.093705139160156,9.77706848144531,9.77751777218977
12.769531541664,-0.001796264648438,0.094453582763672,9.7860498046875,9.78650578529885
12.779568541664,0.001047821044922,0.092807006835938,9.77886474609375,9.77930518804081
12.7896055416641,0.010927276611328,0.096998291015625,9.78380447387695,9.78429139268086
12.7996425416641,0.001197509765625,0.095052337646484,9.78994171142578,9.79040321406816
12.8096795416641,-0.001796264648438,0.094752960205078,9.7811100769043,9.78156918324218
12.8197165416641,-0.000299377441406,0.101938018798828,9.79592926025391,9.79645964219739
12.8297535416641,-0.001496887207031,0.088466033935547,9.78051132202149,9.78091152194017
12.8397905416641,0.005388793945313,0.091759185791016,9.7814094543457,9.78184132466075
12.8498265416711,-0.006885681152344,0.09580078125,9.79667770385742,9.79714852574718
12.8598635416711,0.0047900390625,0.090262298583984,9.77736785888672,9.77778566317604
12.8699005416711,0.006286926269531,0.096100158691406,9.7956298828125,9.79610328482666
12.8799375416711,0.006586303710938,0.096100158691406,9.77542190551758,9.775896483227
12.8899745416711,0.012424163818359,0.091160430908203,9.79607894897461,9.79651097884106
12.9000115416711,0.005388793945313,0.099093933105469,9.77736785888672,9.77787149100813
12.9100485416711,0.006137237548828,0.093854827880859,9.79083984375,9.7912916022537
12.9200855416711,-0.001197509765625,0.097447357177734,9.7814094543457,9.78189492557624
12.9301225416712,-0.001496887207031,0.094154205322266,9.77751754760742,9.77797098834018
12.9401595416712,0.011076965332031,0.101788330078125,9.78709762573242,9.7876331918865
12.9501965416712,0.008382568359375,0.098644866943359,9.77946350097656,9.77996459319559
12.9602325416636,0.004640350341797,0.090262298583984,9.78036163330078,9.78077923754232
12.9702695416636,0.001496887207031,0.096399536132813,9.79263610839844,9.79311069388817
12.9803065416636,0.005089416503906,0.090112609863281,9.78949264526367,9.78990870418556
12.9903435416636,-0.000449066162109,0.088915100097656,9.7909895324707,9.79139326764259
13.0003805416636,0.0047900390625,0.102237396240234,9.79203735351563,9.79257223421454
13.0104175416636,0.006436614990234,0.098944244384766,9.79218704223633,9.79268903129526
13.0204545416636,-0.000598754882813,0.094303894042969,9.77437408447266,9.774829017745
13.0304915416637,0.005987548828125,0.093705139160156,9.78934295654297,9.78979325750363
13.0405285416637,0.002844085693359,0.094453582763672,9.7909895324707,9.79144553133352
13.0505655416637,0.006735992431641,0.094453582763672,9.77976287841797,9.78022130685053
13.0606025416637,0.003442840576172,0.086669769287109,9.78874420166016,9.78912848764357
13.0706385416706,0.007484436035156,0.100291442871094,9.78679824829102,9.78731497107598
13.0806755416706,0.010627899169922,0.098345489501953,9.78874420166016,9.78924398679906
13.0907125416707,0.009430389404297,0.095501403808594,9.77826599121094,9.77873689416206
13.1007495416707,0.006586303710938,0.098644866943359,9.78500198364258,9.78550141837709
13.1107865416707,0.001945953369141,0.090561676025391,9.79338455200195,9.7938034586819
13.1208235416707,0.003891906738281,0.091759185791016,9.77572128295899,9.77615269404137
13.1308605416707,-0.003293151855469,0.095651092529297,9.79982116699219,9.80028851010925
13.1408975416707,-0.005538482666016,0.095052337646484,9.78170883178711,9.78217221743434
13.1509345416707,0.000748443603516,0.094902648925781,9.78260696411133,9.78306731486707
13.1609715416707,0.003442840576172,0.088166656494141,9.7857504272461,9.78614820227119
13.1710075416631,-0.001496887207031,0.092208251953125,9.78799575805664,9.78843018885737
13.1810445416631,-0.007484436035156,0.094453582763672,9.78934295654297,9.78980147995337
13.1910815416632,-0.000748443603516,0.088466033935547,9.77781692504883,9.77821714931201
13.2011185416632,0.002245330810547,0.090861053466797,9.79607894897461,9.7965005765881
13.2111555416632,0.000598754882813,0.095202026367188,9.78006225585938,9.78052562558971
13.2211925416632,-0.003592529296875,0.098345489501953,9.78874420166016,9.78923887680281
13.2312295416632,-0.005239105224609,0.097896423339844,9.79173797607422,9.79222874273372
13.2412665416632,0.001646575927734,0.089513854980469,9.78530136108398,9.7857109178985
13.2513035416632,0.000748443603516,0.092657318115234,9.78470260620117,9.78514133932506
13.2613406666642,-0.002245330810547,0.090711364746094,9.77871505737305,9.77913604397131
13.2713776666642,0.005688171386719,0.085771636962891,9.78784606933594,9.78822352656579
13.2814136666711,-0.004041595458984,0.094453582763672,9.78155914306641,9.7820160030076
13.2914506666712,0.000149688720703,0.091459808349609,9.79428268432617,9.79470970572592
13.3014876666712,-0.001197509765625,0.09340576171875,9.78739700317383,9.7878427739767
13.3115246666712,0.012274475097656,0.089064788818359,9.7859001159668,9.7863131095947
13.3215616666712,0.005239105224609,0.091160430908203,9.79607894897461,9.79650450145002
13.3315986666712,0.002844085693359,0.096399536132813,9.781259765625,9.7817352019989
13.3416356666712,0.007634124755859,0.094603271484375,9.7859001159668,9.78636036218345
13.3516726666712,0.014519805908203,0.096249847412109,9.78829513549805,9.78877911271397
13.3617096666712,0.014519805908203,0.094603271484375,9.77931381225586,9.77978216742671
13.3717466666712,-0.001945953369141,0.093854827880859,9.78410385131836,9.78455418958032
13.3817836666713,-0.000898132324219,0.094752960205078,9.77706848144531,9.77752765380803
13.3918196666637,0.00239501953125,0.0910107421875,9.78769638061524,9.78811979546739
13.4018566666637,0.002095642089844,0.096399536132813,9.78739700317383,9.78787195257572
13.4118936666637,0.001047821044922,0.101039886474609,9.78934295654297,9.78986443610968
13.4219306666637,0.006137237548828,0.097896423339844,9.79398330688477,9.79447448263177
13.4319676666637,-0.001047821044922,0.091459808349609,9.78365478515625,9.78408232536823
13.4420046666637,0.000898132324219,0.092507629394531,9.78919326782227,9.78963039664495
13.4520416666637,0.005837860107422,0.093705139160156,9.77856536865234,9.77901607538931
13.4620786666637,0.007035369873047,0.094303894042969,9.78829513549805,9.78875193170588
13.4721156666637,0.011226654052734,0.103285217285156,9.78365478515625,9.7842063975052
13.4821526666638,0.002544708251953,0.096249847412109,9.80146774291992,9.80194064581941
13.4921886666707,0.001496887207031,0.087717590332031,9.78260696411133,9.783000338884
13.5022256666707,0.0047900390625,0.092657318115234,9.78530136108398,9.78574121108394
13.5122626666707,0.001646575927734,0.087867279052734,9.78006225585938,9.7804571006894
13.5222996666707,-0.001197509765625,0.095950469970703,9.77257781982422,9.77304891890128
13.5323366666707,0.002245330810547,0.099842376708984,9.78530136108398,9.78581096633945
13.5423736666708,0.000898132324219,0.097896423339844,9.7909895324707,9.79147897619636
13.5524106666708,0.008532257080078,0.092657318115234,9.78889389038086,9.78933612535329
13.5624476666708,0.001047821044922,0.092507629394531,9.78440322875977,9.78484058645769
13.5724846666708,0.002694396972656,0.094453582763672,9.77482315063477,9.7752798612243
13.5825216666708,0.0047900390625,0.089813232421875,9.79113922119141,9.79155230849251
13.5925586666708,-0.0047900390625,0.092357940673828,9.77736785888672,9.7778052333676
13.6025946666632,0.004490661621094,0.09819580078125,9.78904357910156,9.78953710728359
13.6126316666632,0.007783813476563,0.098495178222656,9.79039077758789,9.79088930923863
13.6226686666632,0.002544708251953,0.098345489501953,9.78964233398438,9.79013663531743
13.6327056666632,0.004340972900391,0.100740509033203,9.78904357910156,9.78956289564327
13.6427426666633,0.005239105224609,0.099842376708984,9.78649887084961,9.78700955846836
13.6527796666633,0.008981323242188,0.093256072998047,9.78889389038086,9.78934221265423
13.6628166666633,-0.004490661621094,0.096848602294922,9.77527221679688,9.77575300067924
13.6728536666633,-0.002544708251953,0.093555450439453,9.78694793701172,9.78739541551403
13.6828906666633,0.002544708251953,0.092058563232422,9.78949264526367,9.78992581719985
13.6929276666633,-0.004939727783203,0.090411987304688,9.77332626342774,9.77374569854185
13.7029646666633,0.0143701171875,0.095052337646484,9.79892303466797,9.7993945775495
13.7130006666703,0.004191284179688,0.099842376708984,9.78365478515625,9.784165116256
13.7230376666703,0.001496887207031,0.096698913574219,9.79293548583985,9.79341300826117
13.7330746666703,0.004041595458984,0.0910107421875,9.78634918212891,9.7867731967305
13.7431116666703,0.013921051025391,0.096249847412109,9.78500198364258,9.78548525361301
13.7531486666703,0.010627899169922,0.101788330078125,9.79128890991211,9.79182374911583
13.7631856666703,0.005538482666016,0.089064788818359,9.78904357910156,9.78945031168487
13.7732226666703,-0.003442840576172,0.089813232421875,9.78440322875977,9.78481603367349
13.7832596666703,0.004041595458984,0.095202026367188,9.78500198364258,9.78546593577472
13.7932966666704,0.001197509765625,0.092657318115234,9.79083984375,9.79127834649758
13.8033336666704,-0.001796264648438,0.097896423339844,9.79039077758789,9.79088037482572
13.8133696666628,0.008083190917969,0.084873504638672,9.78934295654297,9.78971421291666
13.8234066666628,0.006885681152344,0.091908874511719,9.79922241210938,9.7996558376203
13.8334436666628,0.001496887207031,0.099992065429688,9.77886474609375,9.77937607295145
13.8434806666628,0.007933502197266,0.091908874511719,9.79248641967773,9.79292093612748
13.8535176666628,0.003293151855469,0.097447357177734,9.78200820922852,9.782494131748
13.8635546666628,0.01197509765625,0.102237396240234,9.79158828735352,9.79212934336513
13.8735916666628,0.000149688720703,0.102686462402344,9.78560073852539,9.78613950165212
13.8836286666628,0.001347198486328,0.094902648925781,9.78530136108398,9.78576164919977
